loc_acc_x,loc_acc_y,stamp
-7.435389202971416e-05,0.0,1759200749287114328
4.0385767218083484e-06,0.0,1759200749287200140
-6.389560064111936e-05,0.0,1759200749297678491
1.4569236487689243e-05,0.0,1759200749317057521
1.8584287098173594e-05,0.0,1759200749336254345
-1.3517491403921867e-05,0.0,1759200749358454647
6.047878329904827e-06,0.0,1759200749375789851
-1.025877818565997e-05,0.0,1759200749398662381
1.0373589906221395e-05,0.0,1759200749415733506
3.112505387687843e-05,0.0,1759200749436753585
-4.1649200654173236e-05,0.0,1759200749456656776
2.403339871455127e-05,0.0,1759200749476708173
-4.236233931618392e-05,0.0,1759200749496960310
2.7021453254865563e-05,0.0,1759200749516695948
2.9276251871110918e-05,0.0,1759200749535887311
-1.9642646004011195e-06,0.0,1759200749558009272
1.4678438666519854e-05,0.0,1759200749575819493
-1.7595296470533609e-06,0.0,1759200749598198817
2.6778156685010242e-05,0.0,1759200749615955022
3.532554145443236e-05,0.0,1759200749636452274
-2.5850310665366877e-05,0.0,1759200749656593968
2.8172620892261776e-05,0.0,1759200749676792384
1.7782174184379333e-05,0.0,1759200749696649251
3.062264428732755e-05,0.0,1759200749716846141
2.9377871857445763e-05,0.0,1759200749736393876
2.2673179066927994e-05,0.0,1759200749757985087
2.390986892754259e-05,0.0,1759200749775966090
0.00011247502766657298,0.0,1759200749797944129
3.458188192776136e-05,0.0,1759200749815805641
4.217360215095772e-06,0.0,1759200749836661796
0.00012390475092778725,0.0,1759200749856685949
1.6685044841141603e-05,0.0,1759200749877008543
0.00015878293029592777,0.0,1759200749896989077
-1.0911621486779145e-05,0.0,1759200749916286254
-2.815894191479157e-05,0.0,1759200749935878131
3.400649783111801e-05,0.0,1759200749958226876
-2.2762218033362486e-05,0.0,1759200749976038478
2.323933581121991e-05,0.0,1759200749998376150
-3.468143448449279e-05,0.0,1759200750015657541
-4.270211558973726e-05,0.0,1759200750036182767
3.023771359461223e-05,0.0,1759200750057950603
-4.8791141889286745e-05,0.0,1759200750076365190
-0.00010214450289002517,0.0,1759200750096815685
-7.812281138969688e-05,0.0,1759200750116139473
-5.2359517212141135e-05,0.0,1759200750136394324
-0.00012184102816751453,0.0,1759200750157293289
-4.045676082440034e-05,0.0,1759200750176979759
-0.00010763049857607279,0.0,1759200750197407965
-2.3761837290684992e-05,0.0,1759200750217035253
-1.586432963049019e-05,0.0,1759200750236325075
-4.6958859426325204e-05,0.0,1759200750257659649
-2.4454680294177968e-05,0.0,1759200750276217462
-3.742816260479421e-07,0.0,1759200750297140378
0.00022117450212047902,0.0,1759200750317199890
1.2662133102289154e-05,0.0,1759200750336802131
0.000210316577894553,0.0,1759200750357309739
-1.5083505384073882e-05,0.0,1759200750376897155
0.0001843790622059496,0.0,1759200750397066599
-3.5447795424600834e-05,0.0,1759200750416901113
-4.7342176866512465e-05,0.0,1759200750435985977
4.473534407779765e-05,0.0,1759200750458046553
-1.0252608092088778e-05,0.0,1759200750476146071
3.667248090748353e-05,0.0,1759200750498716864
-2.2911947121219666e-05,0.0,1759200750515950685
-8.330894863810516e-05,0.0,1759200750536913274
0.0001227942643034092,0.0,1759200750557097313
-6.855050580517801e-05,0.0,1759200750576952693
0.00012202162237499394,0.0,1759200750597376799
-8.244885904207484e-05,0.0,1759200750616746645
-8.835219457557372e-05,0.0,1759200750636197187
2.456903501888097e-06,0.0,1759200750658195032
-4.639460880309238e-05,0.0,1759200750675900877
2.756708374733043e-06,0.0,1759200750697785441
-7.799930343272659e-05,0.0,1759200750716077799
-0.00010301363216095634,0.0,1759200750736590620
7.234853060255791e-05,0.0,1759200750757252041
-9.011565941882198e-05,0.0,1759200750776853806
8.973334152868125e-05,0.0,1759200750797465129
-9.626282877624932e-05,0.0,1759200750816859430
-0.0001082776460650808,0.0,1759200750835993283
-3.265466537093069e-05,0.0,1759200750858128173
-8.758193064808208e-05,0.0,1759200750875909130
-0.00012403970399586713,0.0,1759200750898000553
-9.984189639191863e-05,0.0,1759200750915834100
-8.511823483802811e-05,0.0,1759200750936768253
-0.0001079789889223482,0.0,1759200750957167804
-7.206101046658267e-05,0.0,1759200750976938365
-0.00011440206948043984,0.0,1759200750997024486
-5.366049363372217e-05,0.0,1759200751016804628
-4.201284504242952e-05,0.0,1759200751035689975
-5.7725060061714276e-05,0.0,1759200751058209576
-3.3553743440372885e-05,0.0,1759200751075651791
4.632220152577768e-05,0.0,1759200751098242799
-1.1199517505088985e-05,0.0,1759200751115939890
-2.13836123961536e-05,0.0,1759200751135776750
5.800152668594451e-05,0.0,1759200751158172336
-3.131231527477024e-05,0.0,1759200751176743378
5.4236633368434455e-05,0.0,1759200751196945693
5.896502988661002e-06,0.0,1759200751216575523
-5.013330922361595e-05,0.0,1759200751237277931
0.00013475396468107454,0.0,1759200751256703594
-3.266664035723889e-05,0.0,1759200751276773372
-0.00010777792381943039,0.0,1759200751297069384
-5.46201166613286e-05,0.0,1759200751316571606
-4.596908698344336e-05,0.0,1759200751335773923
-7.108979542489472e-05,0.0,1759200751357696992
-4.816041930774092e-05,0.0,1759200751375964657
-5.843234817483088e-05,0.0,1759200751397824788
-3.570484584588751e-05,0.0,1759200751415849003
-1.248626158720393e-05,0.0,1759200751437045076
-7.010040887012646e-05,0.0,1759200751458284794
-3.492622347506957e-06,0.0,1759200751477101628
0.0001774047332897243,0.0,1759200751497577987
6.995046134029549e-06,0.0,1759200751516628679
-5.094111499853517e-06,0.0,1759200751535527785
7.045764714219119e-05,0.0,1759200751557777130
2.0127415282679405e-05,0.0,1759200751575562172
5.712563430981739e-05,0.0,1759200751598189247
5.986909241397905e-06,0.0,1759200751616045289
-4.834602851615853e-05,0.0,1759200751636902676
0.00012277917807692555,0.0,1759200751656987727
-4.051987223703784e-05,0.0,1759200751676773814
0.00011882706875468755,0.0,1759200751697231728
-5.4990188990144105e-05,0.0,1759200751716636339
-6.144611907629798e-05,0.0,1759200751736085421
1.55948963971687e-05,0.0,1759200751757628080
-4.9985936199160286e-05,0.0,1759200751775996184
-4.3196333233607115e-06,0.0,1759200751798040045
-6.001734662004029e-05,0.0,1759200751815831865
-7.639388938879532e-05,0.0,1759200751836684308
7.189674877048059e-05,0.0,1759200751857114844
-6.524440321032193e-05,0.0,1759200751876665232
8.44561810033945e-05,0.0,1759200751897292146
-7.360442010585869e-05,0.0,1759200751916668694
-8.42393863923638e-05,0.0,1759200751936038488
-1.937163374706895e-05,0.0,1759200751957590414
-6.428234341867287e-05,0.0,1759200751976244239
-1.6412721574255694e-05,0.0,1759200751997767002
-6.354445069231657e-05,0.0,1759200752015993223
-7.668217096342176e-05,0.0,1759200752037234644
1.3001350732647765e-05,0.0,1759200752056643741
-5.17519387596962e-05,0.0,1759200752076849359
-0.00011170603824454158,0.0,1759200752097097781
-8.325828618388664e-05,0.0,1759200752116083510
-5.339156777061722e-05,0.0,1759200752136847188
-0.00013660548548151448,0.0,1759200752157551701
-4.1321283024483074e-05,0.0,1759200752176952311
3.479645944508241e-05,0.0,1759200752198055276
-1.0330884502134544e-05,0.0,1759200752215752845
-1.799481174948916e-05,0.0,1759200752236191649
5.015394748700105e-05,0.0,1759200752257613907
9.44738652318296e-06,0.0,1759200752275840572
-8.09001295560054e-05,0.0,1759200752297634773
-5.471088500862442e-05,0.0,1759200752316094932
-2.70958020415118e-05,0.0,1759200752336745035
-0.00011420878768368594,0.0,1759200752357302913
-1.9568988400337745e-05,0.0,1759200752376793939
-0.00010302287814609602,0.0,1759200752396962347
-6.567529948316316e-06,0.0,1759200752416713969
6.630848934648328e-07,0.0,1759200752436044124
-3.754225432463782e-05,0.0,1759200752457705956
-1.2882302118711087e-05,0.0,1759200752476377472
6.676744608749108e-05,0.0,1759200752498058054
3.765847719847599e-05,0.0,1759200752515892387
7.786644952854963e-06,0.0,1759200752536875207
0.00010467394619641737,0.0,1759200752557651040
1.869795833582186e-06,0.0,1759200752577077097
9.390696581963089e-05,0.0,1759200752597783704
-1.425206253597477e-05,0.0,1759200752616977619
-2.017185539244885e-05,0.0,1759200752635941163
2.3518467909825676e-05,0.0,1759200752658088200
-3.33077005840077e-06,0.0,1759200752675964025
1.9948016800995368e-05,0.0,1759200752697679055
-2.3380891743841438e-05,0.0,1759200752715818941
-3.7758750642135845e-05,0.0,1759200752736442039
4.939602082667036e-05,0.0,1759200752757356230
-3.4401176898520095e-05,0.0,1759200752777152649
5.586283065088523e-05,0.0,1759200752797884545
-4.346074310056535e-05,0.0,1759200752816704945
-5.024910561072347e-05,0.0,1759200752835714664
-1.3132136360549041e-05,0.0,1759200752858708585
-4.262697957409582e-05,0.0,1759200752875988033
-1.3838785863104536e-05,0.0,1759200752898151566
-4.2932747495540754e-05,0.0,1759200752915926935
-5.0916470363022686e-05,0.0,1759200752936540068
3.576006959848449e-05,0.0,1759200752956713680
-3.8941076748819484e-05,0.0,1759200752977065505
4.973780865425853e-05,0.0,1759200752997194629
-4.047908155498249e-05,0.0,1759200753016734525
-4.69170000214004e-05,0.0,1759200753036012735
-1.063792324370434e-05,0.0,1759200753058107618
-3.774803925381979e-05,0.0,1759200753076208310
9.121091129749285e-06,0.0,1759200753097828384
-3.388069396201915e-05,0.0,1759200753115913175
-3.9889405143415985e-05,0.0,1759200753135468806
6.101122885621868e-05,0.0,1759200753158666144
-6.176600550528184e-05,0.0,1759200753176918111
1.363770225476569e-05,0.0,1759200753197000442
-2.395835712724857e-05,0.0,1759200753215994446
-6.596062838648068e-05,0.0,1759200753236986735
-1.2228683893238392e-05,0.0,1759200753257995383
-5.0713697111863054e-05,0.0,1759200753275884614
2.070389041693764e-05,0.0,1759200753297844190
-6.599333674003682e-05,0.0,1759200753316665832
-6.557308193448532e-05,0.0,1759200753335731650
-2.7507300189664758e-05,0.0,1759200753358783337
-4.4629993213574965e-05,0.0,1759200753376317638
-2.1394385391540494e-05,0.0,1759200753397557937
-3.909993482696601e-05,0.0,1759200753416092574
-5.943891860183309e-05,0.0,1759200753436690303
-0.000215776804718162,0.0,1759200753457515102
-5.0658133390391426e-05,0.0,1759200753476686083
-0.00019588458784422836,0.0,1759200753497021718
-2.1721178455250676e-05,0.0,1759200753516597885
-7.908323495481589e-06,0.0,1759200753535706499
-7.261974913967154e-05,0.0,1759200753558141719
-2.5639042385874985e-05,0.0,1759200753575797752
2.1710983724575317e-05,0.0,1759200753597024422
-0.00013377335089234503,0.0,1759200753617209312
1.9355021930228162e-05,0.0,1759200753636732296
-0.00012564391926082972,0.0,1759200753656935074
3.0365961306731522e-05,0.0,1759200753676930561
0.00017738653675084678,0.0,1759200753697299269
5.3457517893796695e-05,0.0,1759200753716905881
3.9921884751871836e-05,0.0,1759200753735736862
9.661452511006576e-05,0.0,1759200753757716108
5.3974908140610484e-05,0.0,1759200753775960913
8.09978018654723e-05,0.0,1759200753797422430
1.751315372912348e-05,0.0,1759200753816181134
-6.963454059520449e-06,0.0,1759200753837064420
0.00011503237581933455,0.0,1759200753857068369
-4.092065231962682e-06,0.0,1759200753877076088
-0.00011746406352816587,0.0,1759200753897806732
-2.07741847212469e-05,0.0,1759200753916853345
-8.579094020337348e-06,0.0,1759200753936115555
-4.7387998588823134e-05,0.0,1759200753957952001
-9.028106329655606e-06,0.0,1759200753975886876
-3.580203351435935e-05,0.0,1759200753998352170
3.574480061177615e-06,0.0,1759200754015543559
1.6483109281606836e-05,0.0,1759200754037168362
-4.013989344544531e-05,0.0,1759200754057223861
9.113179460467583e-06,0.0,1759200754076782980
-7.585302274457507e-05,0.0,1759200754097614468
2.07712665086293e-05,0.0,1759200754116857335
2.9456025141229143e-05,0.0,1759200754136264836
-2.9555607709263182e-05,0.0,1759200754157893695
1.9083474951483284e-05,0.0,1759200754176013152
-2.2335117582148478e-05,0.0,1759200754197782553
2.6031593359738177e-05,0.0,1759200754216167383
3.3725831683484065e-05,0.0,1759200754235923143
-7.667266007458774e-05,0.0,1759200754258124199
5.198503570208403e-05,0.0,1759200754276817472
0.00015088359172900958,0.0,1759200754297225874
0.0001015518738646482,0.0,1759200754315882942
5.0367542324950445e-05,0.0,1759200754337021883
0.00018914061355490496,0.0,1759200754357370405
3.927441975035549e-05,0.0,1759200754377102201
2.5215814826881913e-05,0.0,1759200754395981885
8.435498166007587e-05,0.0,1759200754418035663
4.058861849896805e-05,0.0,1759200754435955055
6.923479955851603e-05,0.0,1759200754458136771
2.5491621911049925e-05,0.0,1759200754476312720
5.328062659145173e-05,0.0,1759200754497855029
1.1086131337541966e-05,0.0,1759200754515754878
-3.42000789346338e-05,0.0,1759200754536323099
0.00010060196100373462,0.0,1759200754557098157
-3.348519328046795e-05,0.0,1759200754576719864
9.167507232806677e-05,0.0,1759200754597920649
-5.153470363058152e-05,0.0,1759200754616981445
-5.6322102844474806e-05,0.0,1759200754635880754
6.743516897644038e-06,0.0,1759200754657555416
-2.6633208550646818e-05,0.0,1759200754675469581
5.56833681283545e-06,0.0,1759200754698111034
-2.951100798081045e-05,0.0,1759200754716116664
-6.688587058221077e-05,0.0,1759200754737098632
6.955987327657905e-05,0.0,1759200754757011112
-5.2199207770683545e-05,0.0,1759200754776900203
6.8450316257711e-05,0.0,1759200754797873965
-6.494238077566373e-05,0.0,1759200754816805993
-6.755113262987786e-05,0.0,1759200754836364577
-6.3165309561288545e-06,0.0,1759200754857721294
-3.6012827558789765e-05,0.0,1759200754875971960
-0.0001263081853099172,0.0,1759200754898046565
-7.357354907638815e-05,0.0,1759200754915973416
-5.039260774281674e-05,0.0,1759200754936815477
-0.00014875428452555271,0.0,1759200754957069538
-4.0058346804112285e-05,0.0,1759200754976734523
-0.0001404203208101812,0.0,1759200754997255209
-1.944121390530595e-05,0.0,1759200755016790291
-4.431801673850678e-06,0.0,1759200755036044261
-4.434671962225778e-05,0.0,1759200755057653620
-5.114425371102679e-06,0.0,1759200755075732679
5.880131868692877e-05,0.0,1759200755098214012
1.802135792264669e-05,0.0,1759200755116224944
2.3951642704381894e-06,0.0,1759200755137479302
7.374719476061056e-05,0.0,1759200755156976497
1.0533705648482181e-05,0.0,1759200755176750444
0.00011862085066954616,0.0,1759200755196889536
-4.816604272725596e-07,0.0,1759200755217118074
-1.4107188699201676e-05,0.0,1759200755236280147
3.3150690516577775e-05,0.0,1759200755258022354
-9.034815222943593e-06,0.0,1759200755276256006
2.5001028128772918e-05,0.0,1759200755298282192
-1.843955828269609e-05,0.0,1759200755315933457
-2.5293108829585043e-05,0.0,1759200755335884502
2.9308169858595184e-05,0.0,1759200755357674058
-2.9354282882591108e-06,0.0,1759200755376102543
6.831233683581138e-05,0.0,1759200755398018096
-1.7080533186376837e-05,0.0,1759200755415926360
-5.7447528130679435e-05,0.0,1759200755436773802
6.861800475734804e-05,0.0,1759200755457089964
-4.9094589371022324e-05,0.0,1759200755476672790
5.901725637913394e-05,0.0,1759200755498147429
-6.626372075758561e-05,0.0,1759200755516693168
-6.80199906760632e-05,0.0,1759200755536206408
-1.1694330507529975e-05,0.0,1759200755557713654
-3.78199027117251e-05,0.0,1759200755576319240
-8.739094335717181e-06,0.0,1759200755599158617
-3.9405356354199824e-05,0.0,1759200755616055868
-6.988189655848276e-05,0.0,1759200755637232433
4.816508144280413e-05,0.0,1759200755657142091
-5.6418934710823255e-05,0.0,1759200755676945114
-0.0001877606140802271,0.0,1759200755697433341
-6.402649941583411e-05,0.0,1759200755716752796
-4.9891350457266994e-05,0.0,1759200755736278948
-0.00010346328236213543,0.0,1759200755757528731
-6.263707581019549e-05,0.0,1759200755775872497
-8.512347164736751e-05,0.0,1759200755798454143
-4.2705045335948034e-05,0.0,1759200755815970334
7.352424190912559e-07,0.0,1759200755836771302
-0.00012275129230062066,0.0,1759200755856802718
-1.985561579361493e-06,0.0,1759200755877077574
-0.00011994383115283754,0.0,1759200755896757826
8.54129011227551e-06,0.0,1759200755916527454
1.6315767231775018e-05,0.0,1759200755936115982
-3.667544689945377e-05,0.0,1759200755957734201
-3.515961638373616e-06,0.0,1759200755975655572
-2.95343915525993e-05,0.0,1759200755998366687
2.464305097813488e-05,0.0,1759200756016063792
4.206293963356264e-05,0.0,1759200756036761740
-6.786791080710299e-05,0.0,1759200756056704436
3.094482590964526e-05,0.0,1759200756076973513
0.00016184716887059433,0.0,1759200756097161347
4.678797202289109e-05,0.0,1759200756116862741
2.987955077537867e-05,0.0,1759200756136097935
7.38420189368164e-05,0.0,1759200756157602637
2.7466977655716756e-05,0.0,1759200756175669293
5.793188070708953e-05,0.0,1759200756197612542
1.2785754852953297e-05,0.0,1759200756215853829
-4.43380697761271e-06,0.0,1759200756237005153
6.054763620231179e-05,0.0,1759200756257051930
1.5974162586042848e-06,0.0,1759200756276769732
0.00010098207081158422,0.0,1759200756297471944
1.4749817737970996e-05,0.0,1759200756315865637
-2.8469254235303492e-05,0.0,1759200756336777144
1.755970570975562e-05,0.0,1759200756358425981
-2.2170500676038378e-05,0.0,1759200756376019328
1.1172224063365153e-05,0.0,1759200756397972801
-2.752780359190083e-05,0.0,1759200756415969556
-3.2807320198027455e-05,0.0,1759200756436230238
1.968325675404749e-05,0.0,1759200756457804702
-1.0121805020201542e-05,0.0,1759200756475977962
1.733930222571994e-05,0.0,1759200756497664811
-1.3809162586755555e-05,0.0,1759200756515729148
-4.6618020933223694e-05,0.0,1759200756536974264
6.583878134882237e-05,0.0,1759200756557428050
-4.44258049240002e-05,0.0,1759200756576321528
5.849115392504771e-05,0.0,1759200756597448527
-5.5885702334141844e-05,0.0,1759200756616393612
-5.7982057230019716e-05,0.0,1759200756636155709
-4.960011415990698e-06,0.0,1759200756657454920
-2.9926751372446064e-05,0.0,1759200756676041639
-2.5659668667048834e-06,0.0,1759200756698277107
-3.060687812359702e-05,0.0,1759200756715909948
-6.006291040048895e-05,0.0,1759200756736971284
-0.0001963992765517842,0.0,1759200756756813082
-6.523872622895054e-05,0.0,1759200756777094476
-0.00018700210720268233,0.0,1759200756797021738
-3.857980783994312e-05,0.0,1759200756816386678
-2.522635956925941e-05,0.0,1759200756835928236
-7.835486698283051e-05,0.0,1759200756857959460
-3.850795579197149e-05,0.0,1759200756876067652
-6.450704143918078e-05,0.0,1759200756898094825
-2.2944109122888157e-05,0.0,1759200756915526165
1.873751909887173e-05,0.0,1759200756936683320
-0.00010699307425571626,0.0,1759200756957076106
1.525992736900175e-05,0.0,1759200756977231260
-0.00010316146472853758,0.0,1759200756997472578
2.9216645827695426e-05,0.0,1759200757016723975
4.092484146941861e-05,0.0,1759200757036066943
-8.25537758105426e-06,0.0,1759200757057451462
3.0198226209744632e-05,0.0,1759200757075983890
4.3091743417943156e-05,0.0,1759200757096493613
0.00014527804205741114,0.0,1759200757117682633
4.123834218756561e-05,0.0,1759200757137675223
0.00015558439696789872,0.0,1759200757156677660
2.8351464824901863e-05,0.0,1759200757176343525
0.0001303573313532113,0.0,1759200757197362457
5.069769107977597e-06,0.0,1759200757217077775
-9.20492227561908e-06,0.0,1759200757236335610
3.289182858278244e-05,0.0,1759200757258269086
-7.5120486615710955e-06,0.0,1759200757275906255
2.3207109327701433e-05,0.0,1759200757298158308
-1.6284929021827117e-05,0.0,1759200757316015674
-2.9482451289838476e-05,0.0,1759200757336865220
3.2318796499484536e-05,0.0,1759200757357095495
-1.9777844194418e-05,0.0,1759200757376672330
3.392160974551439e-05,0.0,1759200757396588111
3.3602616141383913e-06,0.0,1759200757415710181
-3.0327247258993397e-05,0.0,1759200757436951507
7.892678195505547e-05,0.0,1759200757457207026
-2.5418289437762934e-05,0.0,1759200757477101953
7.583335028971828e-06,0.0,1759200757497934728
-2.7577194346782554e-05,0.0,1759200757515908474
-3.211394699485676e-05,0.0,1759200757536264385
1.724474507086589e-05,0.0,1759200757557465791
-1.0107968140477688e-05,0.0,1759200757575561515
1.4114518778414665e-05,0.0,1759200757598719671
-1.4954985676555773e-05,0.0,1759200757615993544
-4.557479848621264e-05,0.0,1759200757636785618
0.00030298371831325463,0.0,1759200757656890251
-1.9862205487752188e-05,0.0,1759200757676999864
5.798240956620702e-05,0.0,1759200757697145561
-6.195219693198036e-05,0.0,1759200757716780515
-6.451340487650207e-05,0.0,1759200757735685427
-2.0371413404909987e-05,0.0,1759200757758034458
-4.1677839393277495e-05,0.0,1759200757776113230
-1.5589248571623438e-05,0.0,1759200757797838353
-3.87480639380676e-05,0.0,1759200757815725738
-6.368231163858907e-05,0.0,1759200757836678850
3.065749930014393e-05,0.0,1759200757857604752
-5.936415086208618e-05,0.0,1759200757876376877
2.9546887173136703e-05,0.0,1759200757897198277
-6.057629134459691e-05,0.0,1759200757916893224
-6.130398264043547e-05,0.0,1759200757935607410
-1.7935642887633255e-05,0.0,1759200757958019849
-3.814862930709194e-05,0.0,1759200757976009432
-1.4420817001435744e-05,0.0,1759200757998694093
-5.202486232521459e-05,0.0,1759200758016019407
-6.178905556358313e-05,0.0,1759200758036792088
2.166706488282697e-05,0.0,1759200758057301921
-5.3077095374763155e-05,0.0,1759200758076710304
3.164314760186944e-05,0.0,1759200758097140200
-5.189338985169593e-05,0.0,1759200758116911083
-5.6813997975541866e-05,0.0,1759200758135812568
-2.0249996770261737e-05,0.0,1759200758157549301
-4.398181457348478e-05,0.0,1759200758176113134
-1.7329987043319714e-05,0.0,1759200758198070135
-4.29076599488882e-05,0.0,1759200758215966072
-4.945281115919133e-05,0.0,1759200758236980311
-1.1055253733696768e-06,0.0,1759200758257145015
-3.7068765757905475e-05,0.0,1759200758276711117
3.429494835820273e-05,0.0,1759200758297264226
-3.911224600238284e-05,0.0,1759200758316910059
-4.396883405432599e-05,0.0,1759200758335813861
-1.2381271195048144e-05,0.0,1759200758359154784
-3.791826325768225e-05,0.0,1759200758375976373
-1.2826807961407863e-05,0.0,1759200758397706033
-3.6833917817364466e-05,0.0,1759200758415862161
-3.8665194149366075e-05,0.0,1759200758435881132
-1.7533795642617366e-06,0.0,1759200758457687406
-3.567960030034311e-05,0.0,1759200758477284375
3.82432434761323e-06,0.0,1759200758497117484
-1.5978780860595536e-05,0.0,1759200758515693023
-3.802523249190114e-05,0.0,1759200758536524200
4.0242525557134174e-05,0.0,1759200758556649322
-3.0134032598931075e-05,0.0,1759200758576730171
-6.319880384990046e-06,0.0,1759200758598063272
-2.96738330429945e-05,0.0,1759200758616031509
-3.184148951847974e-05,0.0,1759200758636195143
2.8369079648539045e-06,0.0,1759200758657920056
-1.4990526461973222e-05,0.0,1759200758676279480
3.443197129961508e-06,0.0,1759200758698085523
-1.644978598769423e-05,0.0,1759200758715479510
-3.644405717030665e-05,0.0,1759200758737259190
3.664681448520112e-05,0.0,1759200758757350397
-3.141617789954417e-05,0.0,1759200758776966658
3.79687138793141e-05,0.0,1759200758797083906
-3.23821409922009e-05,0.0,1759200758816982222
-3.4240011299393025e-05,0.0,1759200758836164955
-9.91177624357176e-07,0.0,1759200758857771601
-1.754260689949076e-05,0.0,1759200758876103179
-3.557095724981796e-05,0.0,1759200758897201860
3.640888084087194e-05,0.0,1759200758917135224
-2.858851980528482e-05,0.0,1759200758936726284
3.7215699778769465e-05,0.0,1759200758957022945
-3.030267249905074e-05,0.0,1759200758976964958
3.423582015746068e-05,0.0,1759200758997335805
-3.4310709900368804e-05,0.0,1759200759016650061
-3.569147071102436e-05,0.0,1759200759036042219
-4.318532333225452e-06,0.0,1759200759057983794
-1.990261400540241e-05,0.0,1759200759075935001
-2.5550866011913816e-05,0.0,1759200759097816478
-3.3293069813277766e-05,0.0,1759200759116064022
-3.409931635300279e-05,0.0,1759200759136891779
-1.2481845211377126e-05,0.0,1759200759156988142
-2.8124310654872063e-05,0.0,1759200759176519908
-6.300793676221408e-06,0.0,1759200759196710406
-2.430476267951186e-05,0.0,1759200759216805784
-2.4253980645612118e-05,0.0,1759200759235794701
-1.4574217732790727e-05,0.0,1759200759257800403
-1.9389114403521772e-05,0.0,1759200759276073732
4.721807647750213e-06,0.0,1759200759298538340
-1.562151679543914e-05,0.0,1759200759316168851
-2.2033253812158557e-05,0.0,1759200759336646058
3.5733889287681625e-05,0.0,1759200759357262448
-1.9406668269301384e-05,0.0,1759200759376671467
4.0680443138118035e-05,0.0,1759200759397032134
-2.144842010103793e-05,0.0,1759200759416973152
-2.6641279271339877e-05,0.0,1759200759435839503
-2.116661845120123e-06,0.0,1759200759458132852
-2.172393692345171e-05,0.0,1759200759475776272
-2.0387914022696658e-05,0.0,1759200759497677422
-2.513231860770878e-05,0.0,1759200759516031623
-2.4108186839089597e-05,0.0,1759200759536067356
-1.4801761254614612e-05,0.0,1759200759557936694
-2.103478915986977e-05,0.0,1759200759576843396
-5.217005816359329e-06,0.0,1759200759598282348
-1.6140512228513435e-05,0.0,1759200759615701846
-2.0317257368519026e-05,0.0,1759200759637147700
-8.719358670581546e-07,0.0,1759200759657430435
-1.692847435140738e-05,0.0,1759200759676800858
-0.00019709174396832235,0.0,1759200759697244595
-2.0006965225721735e-05,0.0,1759200759716710645
-6.412256156774007e-06,0.0,1759200759736178039
-8.326017879448552e-05,0.0,1759200759757967534
-3.166017370391855e-05,0.0,1759200759775969945
-6.951251450436378e-05,0.0,1759200759797775612
-1.7481244553868845e-05,0.0,1759200759816014637
3.910077046084624e-05,0.0,1759200759836511579
-0.00012064517191709805,0.0,1759200759858397357
5.3799268078632594e-05,0.0,1759200759877092026
0.00013242749861548813,0.0,1759200759897443595
7.100806287080959e-05,0.0,1759200759916843099
6.0257994801849196e-05,0.0,1759200759935909059
8.71098200873283e-05,0.0,1759200759957614457
6.132560531784667e-05,0.0,1759200759976106137
7.179957473908619e-05,0.0,1759200759998171966
4.5663457365845514e-05,0.0,1759200760015887878
2.0228891895978103e-05,0.0,1759200760037784100
9.169130181525046e-05,0.0,1759200760056691315
1.9177810849069986e-05,0.0,1759200760076315691
3.811557230757417e-05,0.0,1759200760097064372
5.457816480415571e-06,0.0,1759200760116497359
1.4120703053559738e-06,0.0,1759200760135794586
1.0268542195417286e-05,0.0,1759200760157710308
4.303837288634139e-06,0.0,1759200760175555130
1.026691837198983e-05,0.0,1759200760199371410
-1.786426256170893e-06,0.0,1759200760216422525
-5.8802589336188264e-06,0.0,1759200760236542818
1.7193529484169355e-05,0.0,1759200760257026309
-5.214897789791682e-06,0.0,1759200760276799370
6.371241685846082e-05,0.0,1759200760296566103
-2.480192003313046e-06,0.0,1759200760316676317
-9.832245002818265e-06,0.0,1759200760335446041
-2.1118878381304636e-06,0.0,1759200760358002143
-9.97840919923334e-06,0.0,1759200760376202276
-2.66203925684029e-06,0.0,1759200760398374148
-1.0532115526582633e-05,0.0,1759200760415902578
-1.2743630111425187e-05,0.0,1759200760436369107
9.112265279218412e-07,0.0,1759200760457250712
-1.0068091154443488e-05,0.0,1759200760476395775
1.992166125035041e-06,0.0,1759200760496860695
-9.29862816791852e-06,0.0,1759200760516867060
-1.0887315677849386e-05,0.0,1759200760535881499
1.287521420984978e-05,0.0,1759200760557005601
-1.0188263542860228e-05,0.0,1759200760576586310
1.4497591568377466e-05,0.0,1759200760598196998
-7.006138623403928e-06,0.0,1759200760616252189
-1.0640395883948527e-05,0.0,1759200760636342341
1.9451999599295346e-05,0.0,1759200760657808740
1.5483215139427676e-06,0.0,1759200760675999546
-5.3510331085305e-06,0.0,1759200760697749029
-1.1632830648135415e-05,0.0,1759200760716032732
-1.8391614933114832e-05,0.0,1759200760737507216
5.866146482415852e-06,0.0,1759200760757195372
-1.4872664276964841e-05,0.0,1759200760776874653
7.359854717021728e-06,0.0,1759200760797331489
-1.4792805398602552e-05,0.0,1759200760816879105
-1.493045964336862e-05,0.0,1759200760836059758
-3.906258810108413e-06,0.0,1759200760857867648
-8.786736418819403e-06,0.0,1759200760876389329
-2.606679078837142e-06,0.0,1759200760898107450
-8.302316324834446e-06,0.0,1759200760915679797
-1.4205092835017977e-05,0.0,1759200760936883946
8.812367680086802e-06,0.0,1759200760957313842
-1.193576940518996e-05,0.0,1759200760977077788
1.0032780145140502e-05,0.0,1759200760997394045
-1.2355763643871907e-05,0.0,1759200761016855270
-1.2737249677044007e-05,0.0,1759200761035868315
-2.2390491740305245e-06,0.0,1759200761058259453
-7.5366541079125305e-06,0.0,1759200761075933822
0.000122404107814065,0.0,1759200761097896237
4.563841803516139e-05,0.0,1759200761115518420
-3.1338759501093314e-05,0.0,1759200761136897168
0.00023408965145709496,0.0,1759200761156747854
-1.6006830860741938e-05,0.0,1759200761176853648
0.00023146312480572695,0.0,1759200761196697085
-2.648315923894787e-05,0.0,1759200761217326048
-5.515721149361697e-05,0.0,1759200761235819703
0.00013970518535506924,0.0,1759200761257634730
-2.428804005651794e-05,0.0,1759200761276006138
-7.84380780200028e-05,0.0,1759200761298351396
-8.70880223115992e-05,0.0,1759200761316034420
-8.509014882015292e-05,0.0,1759200761336418527
-7.486785937127939e-05,0.0,1759200761356991547
-7.09585434662373e-05,0.0,1759200761376432613
-6.0953652684443876e-05,0.0,1759200761396709602
-5.786705375874803e-05,0.0,1759200761416919544
-5.246707763893874e-05,0.0,1759200761435794208
-4.5987218950242165e-05,0.0,1759200761458266465
-4.2511824075773115e-05,0.0,1759200761475835769
-3.7225527498338226e-05,0.0,1759200761498236543
-3.473562853876057e-05,0.0,1759200761515987706
-3.1751716334673336e-05,0.0,1759200761536894922
-2.6370152680152853e-05,0.0,1759200761556655294
-2.5476266689934992e-05,0.0,1759200761576653281
-2.089984106223949e-05,0.0,1759200761597098633
-1.987960375527379e-05,0.0,1759200761616141865
-1.9232728575168222e-05,0.0,1759200761636879009
-1.2642116451138427e-05,0.0,1759200761656703539
-1.544532346750594e-05,0.0,1759200761676858204
8.660600403495851e-05,0.0,1759200761697727001
8.92138317715444e-06,0.0,1759200761716595012
-8.155456559890702e-06,0.0,1759200761735762426
-2.5947173821286108e-05,0.0,1759200761757883401
-2.5350859328661915e-05,0.0,1759200761776292779
-2.4273718690204963e-05,0.0,1759200761798598708
-2.245690473316674e-05,0.0,1759200761815604297
-2.087713651524113e-05,0.0,1759200761836996235
-1.6922101483438533e-05,0.0,1759200761857343149
-1.6978281404963543e-05,0.0,1759200761876768537
0.0002714587150577792,0.0,1759200761896875303
-3.2827605633183933e-06,0.0,1759200761916521516
-2.1045406788796613e-05,0.0,1759200761936419041
0.00010526723637839004,0.0,1759200761957623695
2.6189160700825005e-05,0.0,1759200761975610493
8.506653865777011e-05,0.0,1759200761998442983
2.2126449387877575e-06,0.0,1759200762015893926
-8.376278658425491e-05,0.0,1759200762036563451
0.00018487904301994583,0.0,1759200762057240150
-8.239111952696289e-05,0.0,1759200762076572988
-6.574833159235955e-05,0.0,1759200762097592314
-0.0001067050235041809,0.0,1759200762117158785
-9.966283941781943e-05,0.0,1759200762136067515
-8.06466464442255e-05,0.0,1759200762158022973
-7.915272819399727e-05,0.0,1759200762175797988
-6.548010124227669e-05,0.0,1759200762198019926
-6.985237941037746e-05,0.0,1759200762216042196
-6.725704576795148e-05,0.0,1759200762236732945
-3.8079453255427236e-05,0.0,1759200762257397493
-5.5376925495656044e-05,0.0,1759200762276842527
-2.594511628558044e-05,0.0,1759200762296891123
-4.7075219931759666e-05,0.0,1759200762316638061
-4.528704933672715e-05,0.0,1759200762335949263
-3.189413218263801e-05,0.0,1759200762358162093
-3.6918898014586684e-05,0.0,1759200762375540763
-2.662072427122332e-05,0.0,1759200762397691501
-3.1815284615369514e-05,0.0,1759200762416190376
-3.192970555255644e-05,0.0,1759200762436728472
-6.951060555250577e-06,0.0,1759200762457094599
-2.615748917129383e-05,0.0,1759200762476702555
0.00023034359471375026,0.0,1759200762497661307
-2.96702304347824e-05,0.0,1759200762516676179
-5.472559922055512e-05,0.0,1759200762535995670
4.62766993358586e-05,0.0,1759200762557747685
-4.072381630169606e-05,0.0,1759200762575683837
3.038883761394486e-05,0.0,1759200762598351450
-5.70380059506708e-05,0.0,1759200762616042997
-8.492414994725755e-05,0.0,1759200762636872030
5.6325974162112875e-05,0.0,1759200762657178977
-5.946226698802783e-05,0.0,1759200762676824227
6.114482205084093e-05,0.0,1759200762697155580
-7.350867328397283e-06,0.0,1759200762715946775
-8.291996466779266e-05,0.0,1759200762736998971
0.000164935622387981,0.0,1759200762757299079
-7.404553558134757e-05,0.0,1759200762776792456
0.00015515006141684882,0.0,1759200762797462186
-9.544772515173247e-05,0.0,1759200762816751145
-0.00010336439823429791,0.0,1759200762835983862
-0.00011562121076754802,0.0,1759200762857938426
-0.00010516054997260327,0.0,1759200762876221284
2.525444499718187e-05,0.0,1759200762898215632
-3.4995736046619826e-05,0.0,1759200762915912520
-9.769737147547792e-05,0.0,1759200762936791209
0.0001441843849742937,0.0,1759200762956894217
-7.70035722837284e-05,0.0,1759200762976881800
0.00014728641135672874,0.0,1759200762997140769
-8.341884152043857e-05,0.0,1759200763017236821
-9.213974134003135e-05,0.0,1759200763036083272
1.3564889193708106e-05,0.0,1759200763057914095
-4.330089322370672e-05,0.0,1759200763075945978
1.3979609178887425e-05,0.0,1759200763097460411
-4.3685556841543354e-05,0.0,1759200763116190547
-0.00010929263052934638,0.0,1759200763136716285
0.00011702840289400277,0.0,1759200763157135578
-9.064310256019113e-05,0.0,1759200763176904729
0.00012291008638278518,0.0,1759200763197063100
-9.498613254978555e-05,0.0,1759200763216926373
-0.00010130487637746178,0.0,1759200763236028766
3.748040018163295e-07,0.0,1759200763257725885
-5.1000494104191366e-05,0.0,1759200763276161510
3.5616860252536217e-06,0.0,1759200763297664751
-8.478635490390173e-05,0.0,1759200763315953145
-0.00011088758669794635,0.0,1759200763337367767
9.388473373785696e-05,0.0,1759200763356692839
-7.875742814500348e-05,0.0,1759200763377149064
0.00011925399781895115,0.0,1759200763397435096
-9.0703852797141e-05,0.0,1759200763416525454
-0.00010542591590414344,0.0,1759200763435556751
-2.5335338041667575e-05,0.0,1759200763458173671
-8.69184788570267e-05,0.0,1759200763475983575
-2.6826296286902365e-05,0.0,1759200763498694045
-9.020411198131572e-05,0.0,1759200763516000673
-0.00010659765010753491,0.0,1759200763537205757
8.224165170043109e-05,0.0,1759200763556909481
-7.939073856340755e-05,0.0,1759200763577015593
0.00010326066412375214,0.0,1759200763597723147
-9.414133804949598e-05,0.0,1759200763616685477
-0.00010667923124335755,0.0,1759200763636046984
8.98022507530913e-05,0.0,1759200763656986419
-9.90493627578546e-05,0.0,1759200763676385971
-0.0001339778177409479,0.0,1759200763698050896
-0.0001103645330148088,0.0,1759200763715882698
-9.713931397902473e-05,0.0,1759200763735958131
-0.00011278453177555947,0.0,1759200763757715759
-7.705537222576756e-05,0.0,1759200763776291358
-9.304741810616357e-05,0.0,1759200763797227776
-7.055482584494247e-05,0.0,1759200763816187590
-4.675364501086044e-05,0.0,1759200763836526204
-9.088586934420594e-05,0.0,1759200763857700129
-3.441242682639623e-05,0.0,1759200763877065857
-7.920761871593992e-05,0.0,1759200763897046659
-2.148849380003923e-05,0.0,1759200763916286099
-1.568321812138518e-05,0.0,1759200763935622657
-3.5085085237460475e-05,0.0,1759200763957689811
-1.970961159060717e-05,0.0,1759200763976218238
-2.8991355330368252e-05,0.0,1759200763998177483
-1.3033578563755578e-05,0.0,1759200764015847254
2.8443399488537115e-06,0.0,1759200764037388331
-4.43874193917145e-05,0.0,1759200764057562919
4.123622487316631e-06,0.0,1759200764076713564
-3.828797869910743e-05,0.0,1759200764097888227
1.2371279342560667e-05,0.0,1759200764116762769
1.4492307708501377e-05,0.0,1759200764136067979
-6.290704090569469e-06,0.0,1759200764158081415
5.961519995108341e-06,0.0,1759200764175421099
-4.910616232945148e-06,0.0,1759200764197545923
6.98865383546725e-06,0.0,1759200764216006820
2.0193257219097063e-05,0.0,1759200764236813882
-2.4322028389985304e-05,0.0,1759200764257322238
1.819465372724239e-05,0.0,1759200764276640006
1.3699018355223232e-05,0.0,1759200764296779925
2.0938746180461944e-05,0.0,1759200764316704146
1.9506456048943207e-05,0.0,1759200764335865746
1.5645780337143264e-05,0.0,1759200764358049800
1.540239438266014e-05,0.0,1759200764376067180
1.2733146621080464e-05,0.0,1759200764397937253
1.3630044542788118e-05,0.0,1759200764416056147
1.3138436119249614e-05,0.0,1759200764436838935
7.39377886565982e-06,0.0,1759200764457066328
1.0672935223704403e-05,0.0,1759200764476968373
-3.282023720983099e-05,0.0,1759200764496829755
6.824648040442063e-06,0.0,1759200764516584986
1.059365907773766e-05,0.0,1759200764535915596
-5.372898959392278e-06,0.0,1759200764557882733
8.206164568326998e-06,0.0,1759200764575779868
-3.25649269326036e-06,0.0,1759200764598050483
1.0038444312383671e-05,0.0,1759200764616221560
1.420443211325212e-05,0.0,1759200764637494644
-9.04012840661256e-06,0.0,1759200764656776587
8.551524105335288e-06,0.0,1759200764677004613
8.570659818359153e-06,0.0,1759200764697333190
1.2049194416458763e-05,0.0,1759200764716917668
1.1387334847410763e-05,0.0,1759200764735938391
-8.64304360815032e-05,0.0,1759200764758100577
-4.890322004163814e-06,0.0,1759200764776258873
-6.945805833708684e-05,0.0,1759200764798175079
1.5835698886342123e-05,0.0,1759200764815880309
3.094638598104303e-05,0.0,1759200764835819438
-7.08663615956389e-05,0.0,1759200764857991807
-6.703256079632929e-06,0.0,1759200764876039691
2.7853095703628703e-05,0.0,1759200764898306944
5.585797400193519e-05,0.0,1759200764915758259
6.622932394372203e-05,0.0,1759200764936840816
3.431875440444883e-05,0.0,1759200764957497023
5.631367682802073e-05,0.0,1759200764976628614
2.714968463920974e-05,0.0,1759200764996801981
4.8099449219903844e-05,0.0,1759200765017065910
4.51388540742254e-05,0.0,1759200765036101971
3.026417992531468e-05,0.0,1759200765058105561
3.3381820043616824e-05,0.0,1759200765075617986
4.2837679465211075e-05,0.0,1759200765098623815
3.598073093813222e-05,0.0,1759200765116013544
2.9481856863357372e-05,0.0,1759200765137026077
3.9569230917372e-05,0.0,1759200765156800206
2.4290813620612065e-05,0.0,1759200765176770269
3.358240024056753e-05,0.0,1759200765197547865
1.7734216912389217e-05,0.0,1759200765216799079
1.5018311564371322e-05,0.0,1759200765235662505
1.8929181874532742e-05,0.0,1759200765257498844
1.4028669641719795e-05,0.0,1759200765276111509
-2.9473126024440006e-06,0.0,1759200765298387896
2.9476385340313794e-06,0.0,1759200765315879785
9.026608226147205e-06,0.0,1759200765336920070
-1.5491121688579018e-05,0.0,1759200765357008605
7.57325324730469e-06,0.0,1759200765376418650
-1.3820006092973763e-05,0.0,1759200765397664001
1.0371760955416556e-05,0.0,1759200765416786309
1.205889648595618e-05,0.0,1759200765436014052
2.7140030655203664e-06,0.0,1759200765457786141
6.637452671996295e-06,0.0,1759200765476091579
6.640014441150343e-08,0.0,1759200765498029155
9.042611625637636e-06,0.0,1759200765516058097
1.1700194625095108e-05,0.0,1759200765536826956
-8.248546085970456e-06,0.0,1759200765557493813
1.0535768000310964e-05,0.0,1759200765576772675
1.1645931435228064e-05,0.0,1759200765596195849
2.826404648766202e-06,0.0,1759200765617882155
8.982956821241854e-06,0.0,1759200765636125447
2.517781944963996e-06,0.0,1759200765657566039
8.65071179086613e-06,0.0,1759200765676144647
2.523809027370827e-06,0.0,1759200765697695394
8.652931987227398e-06,0.0,1759200765715807047
9.180940930790575e-06,0.0,1759200765735764154
1.4780227336305587e-07,0.0,1759200765757776942
8.784104359525183e-06,0.0,1759200765776863228
-8.045317416673119e-06,0.0,1759200765797132907
4.351559361511163e-06,0.0,1759200765816063795
1.0608230433165324e-05,0.0,1759200765836557692
2.8351286857105866e-05,0.0,1759200765857379590
9.442013455541215e-06,0.0,1759200765876514619
-9.85248341740811e-07,0.0,1759200765897823160
3.867217559634648e-06,0.0,1759200765916226295
4.513500558622883e-06,0.0,1759200765936518132
-3.966968248068754e-06,0.0,1759200765958060153
8.762415532836193e-07,0.0,1759200765975778820
-0.0001247685717069089,0.0,1759200765998147005
-4.804020210265443e-05,0.0,1759200766015562132
3.0326965188153313e-05,0.0,1759200766036397565
-0.00021934500310240705,0.0,1759200766057064575
3.03735315821551e-05,0.0,1759200766076893515
3.5104784063621525e-05,0.0,1759200766097499939
6.278027246851987e-05,0.0,1759200766116894546
5.883752791527483e-05,0.0,1759200766135914238
5.155450152039334e-05,0.0,1759200766158431155
4.865465573001533e-05,0.0,1759200766176017734
4.221703832575801e-05,0.0,1759200766198043222
4.009784627811125e-05,0.0,1759200766215866027
3.852039622900914e-05,0.0,1759200766237095766
2.70884036431822e-05,0.0,1759200766256986209
3.104179397687018e-05,0.0,1759200766277125584
-0.00018183110118601896,0.0,1759200766297681165
2.840079579291465e-05,0.0,1759200766316685169
3.9629081494937585e-05,0.0,1759200766335689400
-5.367353032427305e-05,0.0,1759200766357877350
2.9728174545917336e-06,0.0,1759200766375825796
-4.539334956131911e-05,0.0,1759200766397620936
1.0587633440675955e-05,0.0,1759200766416484032
7.592215413735413e-05,0.0,1759200766436656872
-0.00012782596639463413,0.0,1759200766456873104
6.264109544301846e-05,0.0,1759200766477051011
0.00011286806987604274,0.0,1759200766497112444
8.329097667437017e-05,0.0,1759200766517077254
7.263377971826174e-05,0.0,1759200766535847161
8.150543686965375e-05,0.0,1759200766557910941
6.0286839302854184e-05,0.0,1759200766575757022
6.51795442530625e-05,0.0,1759200766598420353
4.5119159357933716e-05,0.0,1759200766616263779
3.5105378455870345e-05,0.0,1759200766636721317
5.310268930711577e-05,0.0,1759200766656972834
2.9680368466638718e-05,0.0,1759200766676324360
2.8414194099518074e-05,0.0,1759200766696689013
1.8986030692413997e-05,0.0,1759200766716779379
1.6257968996345515e-05,0.0,1759200766735986170
1.6114068101741655e-05,0.0,1759200766757913610
1.3035972843558349e-05,0.0,1759200766775524465
1.293401582342441e-05,0.0,1759200766798099774
1.0105565543932302e-05,0.0,1759200766815515155
8.511770847779219e-06,0.0,1759200766836918456
1.0103342696304097e-05,0.0,1759200766857441550
7.045157044356557e-06,0.0,1759200766877175237
4.252294873532787e-05,0.0,1759200766897430248
1.4968415229637908e-05,0.0,1759200766916078086
2.5301198115271083e-07,0.0,1759200766936662579
-0.0002493426858953711,0.0,1759200766956835990
-1.282582471011037e-05,0.0,1759200766976700211
-0.00023082635419622257,0.0,1759200766997149526
1.6993284431722348e-05,0.0,1759200767016925802
3.185952155013565e-05,0.0,1759200767036675037
-7.243001991745631e-05,0.0,1759200767057984860
-9.105619387106662e-06,0.0,1759200767076166950
6.413341524029158e-05,0.0,1759200767097912745
5.952962325996379e-05,0.0,1759200767116211805
5.575487960515382e-05,0.0,1759200767136966114
6.65222953411622e-05,0.0,1759200767157471275
4.586777600872664e-05,0.0,1759200767176926525
5.662670751664694e-05,0.0,1759200767197051021
3.5702631140806384e-05,0.0,1759200767216972139
3.0925464318450373e-05,0.0,1759200767235550738
3.458272093022991e-05,0.0,1759200767257819454
2.7204898543688008e-05,0.0,1759200767275952719
1.9893272768807305e-05,0.0,1759200767297080707
3.3642937169305295e-05,0.0,1759200767317281755
1.585008849138643e-05,0.0,1759200767336994096
2.9332125524811377e-05,0.0,1759200767357114049
1.153038545695308e-05,0.0,1759200767377239832
2.5802187762931703e-05,0.0,1759200767396687197
8.548078530889763e-06,0.0,1759200767417126904
6.538029375927931e-06,0.0,1759200767436346491
1.2706449307242164e-05,0.0,1759200767457836102
7.578318227840829e-06,0.0,1759200767475873521
1.0427035177439954e-05,0.0,1759200767498354347
2.5495540521114626e-06,0.0,1759200767515914622
-3.331996910267026e-07,0.0,1759200767536915151
1.404718404813919e-05,0.0,1759200767556627491
-1.8525682154192545e-07,0.0,1759200767576374839
1.371228410449228e-05,0.0,1759200767597648969
-2.8175284911133582e-06,0.0,1759200767616550227
-4.313570989942335e-06,0.0,1759200767636005382
1.6522316535763597e-06,0.0,1759200767658003804
-3.5156543163993938e-06,0.0,1759200767675572716
9.855703008592613e-07,0.0,1759200767697540384
-3.826686187629316e-06,0.0,1759200767716542176
-5.4676724378898e-06,0.0,1759200767737302456
8.831919804287804e-06,0.0,1759200767757339745
-4.812358051327176e-06,0.0,1759200767776380591
3.5316212362709927e-06,0.0,1759200767796749453
-9.177532759669787e-07,0.0,1759200767816082601
-6.000961170374167e-06,0.0,1759200767836836933
-2.330327753373598e-08,0.0,1759200767858244744
-4.697077628397733e-06,0.0,1759200767876016077
-2.241034138973396e-07,0.0,1759200767898595134
-5.304187856053305e-06,0.0,1759200767915744478
-5.806988257669826e-06,0.0,1759200767936089982
1.23398471507815e-06,0.0,1759200767957744954
-5.642856317508782e-06,0.0,1759200767976845880
-0.00013162345171966665,0.0,1759200767997400632
-6.764089770842295e-05,0.0,1759200768016356140
3.479514696639108e-06,0.0,1759200768036906517
-0.00025109399777162826,0.0,1759200768057475368
1.3131414084181976e-05,0.0,1759200768076633130
5.197023635707342e-05,0.0,1759200768096987496
5.0069111970437816e-05,0.0,1759200768116367117
4.530142831212978e-05,0.0,1759200768136150580
5.313898449606476e-05,0.0,1759200768157866972
4.2349637795548136e-05,0.0,1759200768175828559
4.367631518112292e-05,0.0,1759200768198100456
3.336372444059459e-05,0.0,1759200768216312666
2.290753708473572e-05,0.0,1759200768237171181
4.3803634891217575e-05,0.0,1759200768256783024
1.8983690227895656e-05,0.0,1759200768276674932
0.00024046991106556237,0.0,1759200768297567627
1.2561583974417777e-05,0.0,1759200768316864556
-4.008249739497435e-06,0.0,1759200768335970746
0.00011242930955765173,0.0,1759200768357793957
3.849090843771593e-05,0.0,1759200768376057893
9.508027047012e-05,0.0,1759200768397908741
1.7307251469448416e-05,0.0,1759200768415696600
-6.254272533774622e-05,0.0,1759200768436761692
0.00018416518983133652,0.0,1759200768457729709
-6.955009815932679e-05,0.0,1759200768476732961
-7.178860283807396e-05,0.0,1759200768496927904
-9.415242295900918e-05,0.0,1759200768516374781
-8.689041486872124e-05,0.0,1759200768536004865
-7.716014828997802e-05,0.0,1759200768557932545
-7.14052446750381e-05,0.0,1759200768575700180
-6.650929310327884e-05,0.0,1759200768597026761
0.00019667563461605624,0.0,1759200768616771322
-3.645093169870185e-05,0.0,1759200768636652855
0.00019926104034671225,0.0,1759200768656803479
-4.706582050571163e-05,0.0,1759200768677139848
-5.9958640486772096e-05,0.0,1759200768697058887
-7.693825023057319e-05,0.0,1759200768716833385
-7.2060102540328e-05,0.0,1759200768736338441
-6.615586718011243e-05,0.0,1759200768757897550
-5.966045348859856e-05,0.0,1759200768775967267
-5.390301435921262e-05,0.0,1759200768797918954
-4.8485090417322454e-05,0.0,1759200768815653207
-4.3626080477798645e-05,0.0,1759200768837011408
-3.9206943318028166e-05,0.0,1759200768857334215
-3.533133976571791e-05,0.0,1759200768877142242
0.00021185608526908963,0.0,1759200768897148150
-1.6234251857536814e-05,0.0,1759200768916853710
-4.045663778358975e-05,0.0,1759200768935854302
0.00019835206587647203,0.0,1759200768956966628
-3.979970809166232e-05,0.0,1759200768976971735
2.9856550155550944e-05,0.0,1759200768998058470
-4.924334252108913e-05,0.0,1759200769016025880
-6.0415421586065005e-05,0.0,1759200769036440652
6.351158694398401e-05,0.0,1759200769058061035
-8.017413576427928e-06,0.0,1759200769076006551
-0.00010723446928164623,0.0,1759200769097783458
-9.11128422845102e-05,0.0,1759200769116030117
-7.555759045039373e-05,0.0,1759200769136975615
-0.00011807895685079703,0.0,1759200769156973692
-6.312400703438844e-05,0.0,1759200769176883546
-0.00010172409289615144,0.0,1759200769197537830
-4.406580788173835e-05,0.0,1759200769216719260
-3.6071098665927324e-05,0.0,1759200769235649819
-5.2088396085148925e-05,0.0,1759200769257969652
-3.538033999200448e-05,0.0,1759200769276206750
7.90147564797324e-05,0.0,1759200769298725721
2.33047260598604e-05,0.0,1759200769315885801
-3.326848416019972e-05,0.0,1759200769336627239
0.00015666407322674443,0.0,1759200769357426131
-3.345543926956308e-05,0.0,1759200769377052920
0.00014917820901683848,0.0,1759200769397373549
-4.9522929689844184e-05,0.0,1759200769417021145
-5.86806144391482e-05,0.0,1759200769435852655
2.5713521202973537e-05,0.0,1759200769458274573
-2.3546406043467666e-05,0.0,1759200769476158680
-8.448013859977335e-05,0.0,1759200769498095140
-7.539822880679205e-05,0.0,1759200769515899242
-6.712076522188391e-05,0.0,1759200769536795107
-8.226655430341156e-05,0.0,1759200769557111819
-5.512363212692969e-05,0.0,1759200769576782686
-6.890982973757995e-05,0.0,1759200769597844981
-4.087014620556795e-05,0.0,1759200769616640732
-3.429057034111549e-05,0.0,1759200769635874086
-3.834303570881358e-05,0.0,1759200769657640053
-3.0554231299416726e-05,0.0,1759200769675540991
8.292255978415924e-05,0.0,1759200769698365202
-9.09042717549132e-06,0.0,1759200769716084524
-4.1605889968943225e-05,0.0,1759200769736774757
0.00015837583907556656,0.0,1759200769756775173
-3.6184301432559934e-05,0.0,1759200769776459348
0.0001638458498279797,0.0,1759200769797131286
-5.438402761808809e-05,0.0,1759200769816866228
-7.41823967669862e-05,0.0,1759200769835845849
9.143810782263895e-06,0.0,1759200769857887068
-5.7825961946485056e-05,0.0,1759200769876077508
-8.879312938908301e-06,0.0,1759200769897866987
-6.552827699272712e-05,0.0,1759200769915985998
-8.218565588976721e-05,0.0,1759200769936984947
3.6438911732754146e-05,0.0,1759200769957054278
-5.6925818237316174e-05,0.0,1759200769976685054
0.00011732472748284418,0.0,1759200769997370127
-2.1503288015114864e-05,0.0,1759200770015980310
-8.904163811263403e-05,0.0,1759200770037204119
0.00012505885712638882,0.0,1759200770057247352
-7.514812340436262e-05,0.0,1759200770076741233
-2.6540596682319405e-05,0.0,1759200770098214567
-7.82377474612941e-05,0.0,1759200770115980511
-8.210159944445136e-05,0.0,1759200770136045453
-5.527353379462875e-06,0.0,1759200770157897947
-4.479198147671571e-05,0.0,1759200770175760642
-2.9617558973121246e-06,0.0,1759200770197555077
-4.4385276666354536e-05,0.0,1759200770215543440
-8.779425720007551e-05,0.0,1759200770236985591
7.129092490902901e-05,0.0,1759200770257686978
-7.985743841969853e-05,0.0,1759200770276982614
0.00010493267071907718,0.0,1759200770297412977
-8.896319981350725e-05,0.0,1759200770316283123
-9.279012206466112e-05,0.0,1759200770336697356
-4.081067052607597e-06,0.0,1759200770358168295
-4.938936206052257e-05,0.0,1759200770375969686
-2.5247832186611895e-06,0.0,1759200770398007118
-4.966027566319704e-05,0.0,1759200770416090440
-0.00010077542274970704,0.0,1759200770436893452
8.692052492863214e-05,0.0,1759200770456939633
-8.060642519750429e-05,0.0,1759200770476833071
6.0733257161354565e-05,0.0,1759200770497036407
-8.847995675385274e-05,0.0,1759200770516361774
-9.006238135449058e-05,0.0,1759200770535967956
-2.1630699801056426e-05,0.0,1759200770558076028
-5.5164453779762277e-05,0.0,1759200770575637470
-1.828220368530198e-05,0.0,1759200770598455597
-5.415267335242415e-05,0.0,1759200770615955723
-9.293507093096246e-05,0.0,1759200770636377317
5.1593386586390035e-05,0.0,1759200770656684738
-7.301201781128005e-05,0.0,1759200770677054358
-0.00018501448604737292,0.0,1759200770697017912
-8.696629149642172e-05,0.0,1759200770716935069
-6.838867364382934e-05,0.0,1759200770736253299
-0.00010174851583744459,0.0,1759200770757554925
-7.235775520476951e-05,0.0,1759200770776100524
-9.355919961350105e-05,0.0,1759200770797790986
-4.120861858500453e-05,0.0,1759200770815569499
-2.032784608053161e-05,0.0,1759200770836388478
-0.00010838062498671789,0.0,1759200770856857636
-1.6483926971637793e-05,0.0,1759200770877010201
-4.1911680658730245e-06,0.0,1759200770895623243
-2.5296910142707276e-05,0.0,1759200770918523489
-1.3164918077642885e-06,0.0,1759200770936226843
-1.8466359507379553e-05,0.0,1759200770957986977
3.629464996567769e-06,0.0,1759200770976684932
-1.3786682406150347e-05,0.0,1759200770997974403
8.290266451489416e-06,0.0,1759200771015783444
1.5705263733836175e-05,0.0,1759200771036673056
-1.812248903965098e-05,0.0,1759200771057204335
1.0935358802125851e-05,0.0,1759200771076686831
-3.6344212052803054e-05,0.0,1759200771097129212
-1.0035393453407819e-05,0.0,1759200771116089532
1.9427836238971426e-05,0.0,1759200771136644743
-1.540949740045687e-05,0.0,1759200771158058084
1.4819394681684572e-05,0.0,1759200771175539225
-1.0271269535855909e-05,0.0,1759200771198247706
2.0824737083819214e-05,0.0,1759200771215693629
2.492484556022479e-05,0.0,1759200771236026161
-1.5267493543599593e-05,0.0,1759200771257760622
7.674519763323466e-06,0.0,1759200771276068148
-1.3221228850052835e-05,0.0,1759200771297814326
1.0342395008119521e-05,0.0,1759200771316204882
3.641729612379093e-05,0.0,1759200771336732781
-4.8567401794182585e-05,0.0,1759200771357470090
3.347807512039124e-05,0.0,1759200771376852792
-4.632455540065739e-05,0.0,1759200771397427208
3.976063815395232e-05,0.0,1759200771416642351
4.180795517312165e-05,0.0,1759200771435801548
4.788135977269364e-06,0.0,1759200771458843208
2.4412029558998156e-05,0.0,1759200771476597234
0.00012791130749446894,0.0,1759200771498672490
7.642813358796507e-05,0.0,1759200771515925396
2.584129554333053e-05,0.0,1759200771537164481
0.0001873428387082261,0.0,1759200771556974665
2.4093904154996466e-05,0.0,1759200771576652582
0.00016794822274074234,0.0,1759200771597498314
-1.2868533827762295e-06,0.0,1759200771617277470
-2.0567306837792345e-05,0.0,1759200771635916194
3.848397178659445e-05,0.0,1759200771657746893
4.619097171593848e-06,0.0,1759200771675665265
-7.473044420641269e-05,0.0,1759200771697725790
-3.982304574057744e-05,0.0,1759200771716115953
-2.4597566876375026e-05,0.0,1759200771736663535
-9.991375120604098e-05,0.0,1759200771756904235
-1.8364273416907634e-05,0.0,1759200771776302550
-9.50256242633688e-05,0.0,1759200771796766800
-7.681919930739722e-06,0.0,1759200771816880231
2.800353558863277e-06,0.0,1759200771836358087
-2.7500976796584005e-05,0.0,1759200771858052826
1.3660690568471514e-06,0.0,1759200771876128100
-7.837089210501297e-06,0.0,1759200771898139242
1.0002242582472171e-05,0.0,1759200771915994144
1.56750347276285e-05,0.0,1759200771937391847
-1.1841262665805231e-05,0.0,1759200771956957012
1.0218475219525772e-05,0.0,1759200771976715470
-3.1236069722411164e-05,0.0,1759200771996742093
1.0699136651473381e-05,0.0,1759200772017175974
1.4769346889382413e-05,0.0,1759200772035961268
-3.146347468171806e-06,0.0,1759200772058009668
1.1597326278246963e-05,0.0,1759200772075971537
-1.7148701658512863e-06,0.0,1759200772097719184
1.3023370900656082e-05,0.0,1759200772115687545
1.4823075227629583e-05,0.0,1759200772136091618
-4.93337258394661e-06,0.0,1759200772158389965
1.6291057671729924e-05,0.0,1759200772176594563
0.00012516473487971221,0.0,1759200772197581594
6.774509453600218e-05,0.0,1759200772216136143
8.411308149759925e-06,0.0,1759200772237743450
0.00020710006158338191,0.0,1759200772257378903
6.54354655816889e-06,0.0,1759200772276635990
-5.5114111272222726e-05,0.0,1759200772297199823
-2.479547700970137e-05,0.0,1759200772316724128
-2.0419885819404084e-05,0.0,1759200772335720711
-4.05547717270794e-05,0.0,1759200772357860426
-2.51125909366221e-05,0.0,1759200772376193495
-3.3835664550753663e-05,0.0,1759200772397803915
-1.791522374707372e-05,0.0,1759200772415644812
-2.3070218298230225e-06,0.0,1759200772437387685
-4.7601630009389534e-05,0.0,1759200772457494022
-3.270147729270888e-07,0.0,1759200772476672243
-4.167520305350707e-05,0.0,1759200772497397396
6.246621914279631e-06,0.0,1759200772516824616
8.894460705610895e-06,0.0,1759200772536013654
-1.068193400299637e-05,0.0,1759200772557982474
1.2491092568770757e-06,0.0,1759200772575822409
-8.465902477694292e-06,0.0,1759200772598659232
4.02012073890963e-06,0.0,1759200772616131227
1.7323724552171685e-05,0.0,1759200772636461212
-2.5129465029553936e-05,0.0,1759200772657034504
1.617487376853836e-05,0.0,1759200772676347060
-2.287439337476486e-05,0.0,1759200772697322932
1.977739995599537e-05,0.0,1759200772716658330
2.074420225690365e-05,0.0,1759200772736202160
1.3503408578658742e-06,0.0,1759200772757892775
1.1188864569780045e-05,0.0,1759200772775777498
1.605998647767865e-05,0.0,1759200772797900673
1.9909335455275013e-05,0.0,1759200772815860524
2.01177224011234e-05,0.0,1759200772836457118
9.697037124036445e-06,0.0,1759200772857122247
1.6629084693469082e-05,0.0,1759200772877179121
-5.656677382957323e-05,0.0,1759200772896835912
9.382224480576569e-06,0.0,1759200772916797516
1.604447226813496e-05,0.0,1759200772935876254
-1.082703241783449e-05,0.0,1759200772957563548
1.1945750975363263e-05,0.0,1759200772975536892
-6.982948045941404e-06,0.0,1759200772997828135
1.5454846826447105e-05,0.0,1759200773015864071
2.287285031034629e-05,0.0,1759200773036441072
-1.4175241007263997e-05,0.0,1759200773056657013
1.5231953010107538e-05,0.0,1759200773076766662
1.1626676081853767e-06,0.0,1759200773096817817
1.7647535883819106e-05,0.0,1759200773116856514
1.976218029967893e-05,0.0,1759200773135434501
7.076583033996583e-06,0.0,1759200773158251981
1.638928860736495e-05,0.0,1759200773175952241
9.966603718266006e-05,0.0,1759200773198197075
2.9956613873634606e-05,0.0,1759200773216379798
1.3498742163802033e-05,0.0,1759200773235701974
0.0001027028247791924,0.0,1759200773257663026
4.3005619875201786e-05,0.0,1759200773276078951
-5.4052093599677823e-05,0.0,1759200773297922673
-3.7407095442020595e-05,0.0,1759200773315905562
-2.0438103177854623e-05,0.0,1759200773336874662
-8.52979656145815e-05,0.0,1759200773357107574
-1.6563042591132854e-05,0.0,1759200773376694497
-7.584676304029918e-05,0.0,1759200773397356907
-4.354353734268947e-06,0.0,1759200773416821212
9.104449239252287e-07,0.0,1759200773435885779
-2.6133302047719354e-05,0.0,1759200773458187156
-7.451843208584326e-06,0.0,1759200773475962764
-2.1404277029644356e-05,0.0,1759200773497717469
-2.943145046695048e-06,0.0,1759200773515972658
1.698211714061517e-05,0.0,1759200773536735726
-4.6209704164546236e-05,0.0,1759200773556677715
1.4227213178635468e-05,0.0,1759200773576308951
-4.1391851319383394e-05,0.0,1759200773597543176
2.3025375977480124e-05,0.0,1759200773616392988
2.5046995764372105e-05,0.0,1759200773635826484
-1.998589767537626e-06,0.0,1759200773658133936
1.3190929656265973e-05,0.0,1759200773675580241
1.4092086053011764e-05,0.0,1759200773698199997
2.6112291994325268e-05,0.0,1759200773715451757
2.8504518779192293e-05,0.0,1759200773736691531
1.8216565606804078e-06,0.0,1759200773756797424
2.3133227122458136e-05,0.0,1759200773776937850
-2.490732024095574e-06,0.0,1759200773797911628
2.3513822651603017e-05,0.0,1759200773816662405
2.4134425888315523e-05,0.0,1759200773836011599
1.2837255838707811e-05,0.0,1759200773858325422
1.6385750505374542e-05,0.0,1759200773876176713
-6.789162572554957e-06,0.0,1759200773898220059
1.5616719923288167e-05,0.0,1759200773916001456
2.2733585878068683e-05,0.0,1759200773936391614
-2.760900792629853e-05,0.0,1759200773956641222
1.699745686231363e-05,0.0,1759200773977341418
-3.3134951645830496e-05,0.0,1759200773997813480
2.2086855416892775e-05,0.0,1759200774016474775
2.5798986274341737e-05,0.0,1759200774036115626
4.7003719724512326e-06,0.0,1759200774057804574
2.0455545799814615e-05,0.0,1759200774075676666
0.00011116804940696919,0.0,1759200774097864665
3.712177623487171e-05,0.0,1759200774116009034
7.4796953580805105e-06,0.0,1759200774136625150
0.00012503626906585022,0.0,1759200774156666626
2.0026881628537008e-05,0.0,1759200774176812334
0.00020161864606918796,0.0,1759200774197077472
4.674713991474364e-05,0.0,1759200774215888085
-3.371344600075278e-05,0.0,1759200774236851448
4.868127999731016e-05,0.0,1759200774258067080
-2.3260111589776303e-05,0.0,1759200774275979880
-5.8644056982103135e-05,0.0,1759200774298534845
-4.9702176385479606e-05,0.0,1759200774315945828
-4.409424916741836e-05,0.0,1759200774336258554
-6.552192886180365e-05,0.0,1759200774358787202
-3.885696402801381e-05,0.0,1759200774376105814
-4.328698338393675e-05,0.0,1759200774397519091
-2.991061821145252e-05,0.0,1759200774415767570
-1.615128171662898e-05,0.0,1759200774436610311
-4.5221891487921956e-05,0.0,1759200774456704205
-1.3995232694406943e-05,0.0,1759200774477516709
-4.0238266709320614e-05,0.0,1759200774498366672
-4.841385970653445e-06,0.0,1759200774516643173
-2.1152826052588073e-06,0.0,1759200774535519688
-1.4177929927867935e-05,0.0,1759200774557960006
-5.524518015993298e-06,0.0,1759200774576039327
-1.146052505171101e-05,0.0,1759200774598581452
-2.4545509795786907e-06,0.0,1759200774615892331
6.642643555360685e-06,0.0,1759200774637053939
-2.2260272307610245e-05,0.0,1759200774656923411
4.818628542047969e-06,0.0,1759200774677033682
-2.203306993480673e-05,0.0,1759200774696870783
6.3351530637128574e-06,0.0,1759200774716756789
7.756394884075368e-06,0.0,1759200774735473551
-3.847115396151097e-06,0.0,1759200774758585063
3.422027616423788e-06,0.0,1759200774775780852
-2.890666695267688e-06,0.0,1759200774797993991
4.305083524351112e-06,0.0,1759200774815935808
1.2069559724604928e-05,0.0,1759200774836648102
-1.3916973909632821e-05,0.0,1759200774857245288
1.0299899015353063e-05,0.0,1759200774877057349
-1.503365749347925e-05,0.0,1759200774896605155
9.671308030559277e-06,0.0,1759200774916822058
1.1698090948744589e-05,0.0,1759200774935770608
1.9773071762031053e-06,0.0,1759200774958091624
9.752020846339421e-06,0.0,1759200774975473728
2.5753906778042213e-06,0.0,1759200774998016171
9.984010230619011e-06,0.0,1759200775015998360
1.2051986927388934e-05,0.0,1759200775037181846
-1.0504589098452006e-05,0.0,1759200775056706243
8.672485068874664e-06,0.0,1759200775076990792
1.0171361598942981e-05,0.0,1759200775095776178
9.85046122381242e-07,0.0,1759200775117796970
7.837132030103533e-06,0.0,1759200775136080423
1.1593215774287908e-06,0.0,1759200775157986897
8.151209488441934e-06,0.0,1759200775176017857
1.615032844430524e-06,0.0,1759200775197508922
8.28292695940532e-06,0.0,1759200775215796254
1.0168297730799592e-05,0.0,1759200775237478256
-2.253932279191534e-06,0.0,1759200775256818156
6.84707841836636e-06,0.0,1759200775276999890
-1.073460179915589e-05,0.0,1759200775297709718
3.311825541694747e-06,0.0,1759200775316013015
1.0128730512692696e-05,0.0,1759200775336698468
-1.1066246860943885e-05,0.0,1759200775356939263
8.142081476010042e-06,0.0,1759200775376967894
2.0049371314368346e-06,0.0,1759200775398130002
8.135407826765105e-06,0.0,1759200775415927871
8.659845049229414e-06,0.0,1759200775436079495
-1.526289986139669e-05,0.0,1759200775457697197
-2.407766130969757e-06,0.0,1759200775475814412
1.5864159976929658e-06,0.0,1759200775498464117
6.812285535856494e-06,0.0,1759200775515953058
1.2346151419960776e-05,0.0,1759200775537077052
-6.16879620350942e-06,0.0,1759200775556688945
9.980199939242465e-06,0.0,1759200775576299164
-3.250238893258116e-05,0.0,1759200775597982116
1.3383685924191341e-05,0.0,1759200775616804862
1.5151109042294435e-05,0.0,1759200775636038880
-5.504747376134017e-06,0.0,1759200775657660474
5.833838471167703e-06,0.0,1759200775675838582
0.0001329506219819513,0.0,1759200775697944944
6.657614760027045e-05,0.0,1759200775715897574
-2.2690349166611505e-06,0.0,1759200775736945537
0.00022191901496229147,0.0,1759200775756947210
-5.1477475766878065e-06,0.0,1759200775776371476
0.000197188058948299,0.0,1759200775797188955
-3.452268421103881e-05,0.0,1759200775816882057
-4.705897367702748e-05,0.0,1759200775836160230
5.05484262929001e-05,0.0,1759200775858022180
-8.876765686098233e-06,0.0,1759200775875786187
4.081392046622231e-05,0.0,1759200775898124024
-2.00539301614044e-05,0.0,1759200775916006458
-8.391848740596527e-05,0.0,1759200775937072609
0.00013395938786769113,0.0,1759200775957102471
-7.217591360782216e-05,0.0,1759200775976555879
0.0001309496460277564,0.0,1759200775996762754
-7.76872118731582e-05,0.0,1759200776016783159
-9.451434557479653e-05,0.0,1759200776036020261
-1.0596823516335587e-05,0.0,1759200776057623963
-4.708546731334815e-05,0.0,1759200776076222974
-0.00011027436330706212,0.0,1759200776097712538
-9.06476919678872e-05,0.0,1759200776116078998
-7.817050283725838e-05,0.0,1759200776137247595
-0.00010825348077648184,0.0,1759200776156876412
-6.48826699497553e-05,0.0,1759200776176552782
0.00014841716005169843,0.0,1759200776196639495
-3.380538225033599e-05,0.0,1759200776216749467
-5.152413710567781e-05,0.0,1759200776235944774
2.5034992379664993e-05,0.0,1759200776258390705
-4.107029280780244e-05,0.0,1759200776276240624
1.7516065099636788e-05,0.0,1759200776297605295
-4.687057192597113e-05,0.0,1759200776315933990
-5.6001559964132e-05,0.0,1759200776335984809
3.2496170505092415e-05,0.0,1759200776357748858
-5.909441128016361e-05,0.0,1759200776376669229
3.424669760665618e-05,0.0,1759200776397094917
-1.6551636670921954e-05,0.0,1759200776416166975
-7.411274496017849e-05,0.0,1759200776436915931
0.00011975731315515097,0.0,1759200776457008647
-5.772227070868221e-05,0.0,1759200776477208564
-0.00012365563075666296,0.0,1759200776496975301
-7.885986940405332e-05,0.0,1759200776516866359
-6.851485811079683e-05,0.0,1759200776536294204
-8.823447816044186e-05,0.0,1759200776557771804
-6.608200676301472e-05,0.0,1759200776576205135
-7.26358003946213e-05,0.0,1759200776598083822
-5.0819154324248946e-05,0.0,1759200776616058940
-2.850296035134803e-05,0.0,1759200776636599787
-7.799826694131346e-05,0.0,1759200776657190999
-2.136921793498205e-05,0.0,1759200776676856603
-6.938163291107688e-05,0.0,1759200776697035410
-1.1675180855368583e-05,0.0,1759200776716802716
-6.6186359139214674e-06,0.0,1759200776735910886
-2.782904122642164e-05,0.0,1759200776758015199
-1.2076445277937737e-05,0.0,1759200776775781052
-2.22160361210709e-05,0.0,1759200776798562452
-6.034490665356551e-06,0.0,1759200776815857253
1.0255181071213647e-05,0.0,1759200776836835065
-4.0186000605928344e-05,0.0,1759200776857016508
7.510369488310107e-06,0.0,1759200776877304865
-4.053184542806111e-05,0.0,1759200776896825013
9.97200132041103e-06,0.0,1759200776916672463
1.2505902224513744e-05,0.0,1759200776936065534
-9.160684636604994e-06,0.0,1759200776957920093
3.5821772522758797e-06,0.0,1759200776975822142
-7.56133681875253e-06,0.0,1759200776997911210
1.311514104125504e-05,0.0,1759200777015905271
1.962503423386601e-05,0.0,1759200777037056222
-2.4127735363234296e-05,0.0,1759200777056989373
1.6866914252807352e-05,0.0,1759200777076323492
-5.276560167636929e-05,0.0,1759200777097110562
1.760816732804578e-05,0.0,1759200777116877113
2.4008380787934626e-05,0.0,1759200777136037189
-4.347061731319137e-06,0.0,1759200777157752711
1.7702030854436445e-05,0.0,1759200777176115794
-3.1042913305913236e-06,0.0,1759200777197479980
1.9028514240766304e-05,0.0,1759200777216033608
2.5874100532034578e-05,0.0,1759200777237708076
-4.005063791502314e-05,0.0,1759200777256965925
1.9395939112381026e-05,0.0,1759200777276351248
-4.1623540715948244e-05,0.0,1759200777297632900
2.59626369568606e-05,0.0,1759200777316876977
3.1174848020203386e-05,0.0,1759200777335782170
4.778593035107696e-06,0.0,1759200777357661362
2.4445932842262976e-05,0.0,1759200777376009411
5.227478668589997e-06,0.0,1759200777398118660
2.5400453525505915e-05,0.0,1759200777416025038
2.725897922032481e-05,0.0,1759200777436266543
-2.1362954989151716e-05,0.0,1759200777458676088
1.9868944225710193e-05,0.0,1759200777476124707
4.0618031821508326e-06,0.0,1759200777497960536
2.9730179296439503e-05,0.0,1759200777515731850
4.026800055250429e-05,0.0,1759200777536903466
1.8969061577762597e-06,0.0,1759200777556717944
3.2147803505973e-05,0.0,1759200777576804170
-6.595121479820249e-07,0.0,1759200777597505069
3.098631718817841e-05,0.0,1759200777616892532
3.0236371760830155e-05,0.0,1759200777636139237
1.3812506634829286e-05,0.0,1759200777658011953
2.0025250900676184e-05,0.0,1759200777676275161
1.0859778725658053e-05,0.0,1759200777697981032
1.7829775987324783e-05,0.0,1759200777716016778
2.5634602752832074e-05,0.0,1759200777736906804
-6.246364304539647e-06,0.0,1759200777757033542
2.1214321889663484e-05,0.0,1759200777776799108
-7.808537478495837e-06,0.0,1759200777797594284
2.185062115627129e-05,0.0,1759200777816735000
2.1811563750622287e-05,0.0,1759200777835794087
7.77178792857404e-06,0.0,1759200777858230773
1.4190444858236245e-05,0.0,1759200777876072742
0.00013162285229608876,0.0,1759200777897655139
6.906900496206109e-05,0.0,1759200777916037337
2.7690630602856514e-06,0.0,1759200777936895050
0.000216836954567622,0.0,1759200777956608562
1.3252215794989545e-05,0.0,1759200777977114466
0.00020431643705463355,0.0,1759200777997736367
-2.313829586548445e-05,0.0,1759200778016705877
-4.552159704644511e-05,0.0,1759200778035928222
3.0879936749068004e-05,0.0,1759200778058335234
-1.2622661699427035e-05,0.0,1759200778075691382
4.3009241434589546e-05,0.0,1759200778097870286
-4.116238387419427e-05,0.0,1759200778116477970
-7.147538886816368e-05,0.0,1759200778136374782
0.00011239544649367288,0.0,1759200778156812585
-6.177058543242938e-05,0.0,1759200778176605887
0.00012839680005943794,0.0,1759200778196819299
-6.607428054309607e-05,0.0,1759200778216802732
-8.260241694600778e-05,0.0,1759200778235715639
-6.593519840798116e-06,0.0,1759200778258120010
-6.712246663089777e-05,0.0,1759200778276055369
-9.021991716076935e-06,0.0,1759200778297914601
-6.924357646413282e-05,0.0,1759200778315982519
-8.71523793031112e-05,0.0,1759200778336878741
8.189671694018725e-05,0.0,1759200778358023040
-8.604222177206622e-05,0.0,1759200778376594083
9.097889078436429e-05,0.0,1759200778397396975
-4.395738069843866e-05,0.0,1759200778416084420
-0.00010861794483172853,0.0,1759200778437237953
9.176384567396332e-05,0.0,1759200778457036222
-8.833706057953835e-05,0.0,1759200778476664325
-3.110044800084457e-05,0.0,1759200778498427896
-8.66022129498498e-05,0.0,1759200778516318082
-9.097409843984478e-05,0.0,1759200778535538304
-9.103200342306042e-06,0.0,1759200778558042461
-5.116941538738362e-05,0.0,1759200778576107358
-6.2906177402275985e-06,0.0,1759200778598398988
-5.217576215341321e-05,0.0,1759200778615993891
-0.00010178850411359121,0.0,1759200778636373462
7.399627635579959e-05,0.0,1759200778656876585
-8.40828527716819e-05,0.0,1759200778676950024
8.139259166505172e-05,0.0,1759200778697313411
-8.840372004116803e-05,0.0,1759200778716923010
-9.17654558646613e-05,0.0,1759200778736565127
-1.0742335006967018e-05,0.0,1759200778757602020
-4.9174135431934446e-05,0.0,1759200778776045653
-5.8201926722289355e-06,0.0,1759200778797828422
-4.7638586136588396e-05,0.0,1759200778815957379
-9.379325633866785e-05,0.0,1759200778836600124
7.039942889317675e-05,0.0,1759200778857195423
-8.142343174973931e-05,0.0,1759200778876880149
7.243426367458398e-05,0.0,1759200778897490799
-8.948402166415987e-05,0.0,1759200778916718818
-9.197703470532494e-05,0.0,1759200778936017850
-1.4810479931226544e-05,0.0,1759200778957391878
-5.1310732195385894e-05,0.0,1759200778975464286
-1.092601364306952e-05,0.0,1759200778997707391
-4.93523358134058e-05,0.0,1759200779016031102
-9.174822969561832e-05,0.0,1759200779037217049
7.012110256352056e-05,0.0,1759200779056639624
-6.939859390228227e-05,0.0,1759200779076818851
-0.00016940783136264157,0.0,1759200779096677570
-8.569075795559972e-05,0.0,1759200779116793851
-6.875269013904592e-05,0.0,1759200779136036162
-9.705789805598231e-05,0.0,1759200779157543709
-5.8928216589154295e-05,0.0,1759200779175802586
-7.783482198149126e-05,0.0,1759200779197527274
-4.124844608730953e-05,0.0,1759200779215987239
-2.4903108093092852e-05,0.0,1759200779236351467
-9.969806639719531e-05,0.0,1759200779257197188
-1.7262080359410503e-05,0.0,1759200779276794955
-9.806979726224288e-05,0.0,1759200779296898965
-6.558378444471724e-06,0.0,1759200779316723498
4.222238655962245e-06,0.0,1759200779336011894
-2.736803047486328e-05,0.0,1759200779357773081
2.863099937983395e-06,0.0,1759200779375586653
-1.9922599545111714e-05,0.0,1759200779397644726
9.019500627665262e-06,0.0,1759200779415912483
1.8931437040929094e-05,0.0,1759200779437312938
-2.7295838159294667e-05,0.0,1759200779457179615
1.2338776826248306e-05,0.0,1759200779476403810
0.00010583910041863582,0.0,1759200779497258907
6.0245748777696534e-05,0.0,1759200779515994738
1.1468441999336714e-05,0.0,1759200779536944243
0.00016691795625963865,0.0,1759200779557318150
6.933907402822162e-06,0.0,1759200779576974244
4.7942262064204975e-05,0.0,1759200779599632337
-1.334692307950034e-05,0.0,1759200779615723765
-2.2588038759639613e-05,0.0,1759200779636449741
4.685651908819158e-05,0.0,1759200779657953811
4.606726119842079e-06,0.0,1759200779676141207
9.294786046635392e-05,0.0,1759200779698425649
-2.0744342943473685e-05,0.0,1759200779715616950
-7.108289807610211e-05,0.0,1759200779736765078
0.0003468540480464354,0.0,1759200779757021970
-5.577670545632877e-05,0.0,1759200779776398315
0.0003029214197335216,0.0,1759200779797443274
-0.00010740958942212693,0.0,1759200779816820727
-0.00012534259421382744,0.0,1759200779835927714
5.1412738592334986e-05,0.0,1759200779857601414
-4.5031541130456934e-05,0.0,1759200779876155449
-7.856803000915315e-05,0.0,1759200779898082405
-0.00011166059923707746,0.0,1759200779915980433
-0.00014877386414189164,0.0,1759200779936731289
-5.533154835991633e-06,0.0,1759200779956846406
-0.00012213935403408035,0.0,1759200779976571050
8.24992661635455e-06,0.0,1759200779997140030
-0.00011766799713543157,0.0,1759200780016419753
-0.00011500318936032813,0.0,1759200780036008731
-5.033551255623001e-05,0.0,1759200780058085350
-7.691884756136274e-05,0.0,1759200780075743530
-4.111387242531571e-05,0.0,1759200780098302935
-9.096464192489283e-05,0.0,1759200780116014911
-0.00010272674061785476,0.0,1759200780136995368
2.0967881700340726e-05,0.0,1759200780156578544
-7.879321008781381e-05,0.0,1759200780176835250
4.460185238391847e-05,0.0,1759200780196632883
-7.072474913373346e-05,0.0,1759200780216813498
-7.767864805408371e-05,0.0,1759200780235993953
-2.700514980253434e-05,0.0,1759200780257820480
-6.170167381458678e-05,0.0,1759200780275893218
-3.294988617914716e-05,0.0,1759200780297956811
-6.132065496131645e-05,0.0,1759200780315848983
-6.787603744833431e-05,0.0,1759200780336795282
-1.0977588700560055e-05,0.0,1759200780356686281
-4.9443717139158496e-05,0.0,1759200780377104713
0.00025810682318951983,0.0,1759200780397250590
-4.451079963673857e-05,0.0,1759200780416536377
-7.40742409657473e-05,0.0,1759200780435544282
5.312538813787936e-05,0.0,1759200780457749674
-5.4127096991275436e-05,0.0,1759200780476204888
-5.65295056680133e-05,0.0,1759200780497978378
-8.520240352485854e-05,0.0,1759200780516083404
-8.418919511794763e-05,0.0,1759200780535995775
-4.3094831735514796e-05,0.0,1759200780557830090
-7.660201122751441e-05,0.0,1759200780576534206
-7.67843236342815e-05,0.0,1759200780596155166
5.416723120993806e-06,0.0,1759200780617594439
-6.845320745465058e-05,0.0,1759200780636975571
1.4346603464260565e-05,0.0,1759200780656981364
-6.212464376552537e-05,0.0,1759200780676978733
-0.00022780718835620843,0.0,1759200780697421873
-6.494738560569249e-05,0.0,1759200780716534698
-4.824981403893901e-05,0.0,1759200780736048752
-0.00011577964981530171,0.0,1759200780757712128
-6.581733750325731e-05,0.0,1759200780776481732
-9.69662930331604e-05,0.0,1759200780798242457
-4.501702389663314e-05,0.0,1759200780816146444
9.290608413394902e-06,0.0,1759200780836951996
-0.00014708710239993696,0.0,1759200780857133792
8.968612482075135e-06,0.0,1759200780876817125
0.00010886142009772339,0.0,1759200780897276862
3.245073262774683e-05,0.0,1759200780916642542
2.4355908061121586e-05,0.0,1759200780936078982
6.229541161089116e-05,0.0,1759200780958031871
3.4139576324800986e-05,0.0,1759200780976037189
5.156591740896645e-05,0.0,1759200780998081132
2.289611534658156e-05,0.0,1759200781015987361
-6.9037129225518154e-06,0.0,1759200781036800588
7.942193214606061e-05,0.0,1759200781057248306
-7.405806824255858e-06,0.0,1759200781077054194
7.745451692239726e-05,0.0,1759200781096670618
-1.2563413752486572e-05,0.0,1759200781116639762
-1.750900596432103e-05,0.0,1759200781136458741
2.1187712819582696e-05,0.0,1759200781157953138
-1.966479660006478e-06,0.0,1759200781175992772
1.786450870093447e-05,0.0,1759200781198153558
-2.1054341476110004e-05,0.0,1759200781215726709
-3.2381785138786383e-05,0.0,1759200781238053628
5.0079934723148695e-05,0.0,1759200781257288648
-2.6067030929731927e-05,0.0,1759200781276475018
7.317530228256213e-05,0.0,1759200781297064124
-3.2363573015604043e-05,0.0,1759200781316350378
-4.073556263722697e-05,0.0,1759200781335940757
1.1091756303620933e-07,0.0,1759200781357923114
-3.161995767179265e-05,0.0,1759200781376276589
-1.1642440784582785e-06,0.0,1759200781398043568
-3.370476031330781e-05,0.0,1759200781416129686
-4.3862338808799126e-05,0.0,1759200781436556380
1.2039265846010432e-05,0.0,1759200781457122461
-3.298108478076994e-05,0.0,1759200781476630254
-0.0001199535132391713,0.0,1759200781496840085
-7.805682982288887e-05,0.0,1759200781516126945
-3.2260269489479105e-05,0.0,1759200781536995548
-8.321995124710436e-05,0.0,1759200781557374135
-3.261428918815078e-05,0.0,1759200781575674726
-6.735686265756124e-05,0.0,1759200781597821089
-1.5905556112946082e-05,0.0,1759200781616051909
-4.658018964196502e-06,0.0,1759200781636265387
-6.518198795255876e-05,0.0,1759200781657317001
-2.6021112818386584e-05,0.0,1759200781676014118
-5.466276389091381e-05,0.0,1759200781698004185
-1.3588795167350997e-05,0.0,1759200781715904842
2.8967319123409436e-05,0.0,1759200781737135755
-0.00010866525245344236,0.0,1759200781756747352
1.9955794488982166e-05,0.0,1759200781776741593
-0.00010421647716597842,0.0,1759200781797091017
3.017640648839987e-05,0.0,1759200781816928383
3.654247887384234e-05,0.0,1759200781836329695
-3.4572385508626825e-05,0.0,1759200781857758496
5.2005868451108405e-06,0.0,1759200781875864680
0.00010489444154755026,0.0,1759200781898149036
6.960474638661975e-05,0.0,1759200781915933130
3.331512287478059e-05,0.0,1759200781936378624
0.00014555808533845723,0.0,1759200781956618836
2.793190178194564e-05,0.0,1759200781976536173
0.00013216051602028204,0.0,1759200781996991461
9.54061194521208e-06,0.0,1759200782016811749
3.182273150167779e-07,0.0,1759200782036168105
6.001580497148386e-05,0.0,1759200782058021515
2.066220164259246e-05,0.0,1759200782075898423
-9.895630171208391e-05,0.0,1759200782097621681
-5.6323528920039246e-05,0.0,1759200782115811287
-1.2504792426180867e-05,0.0,1759200782137231957
-0.00016748027300861175,0.0,1759200782156631089
-1.7562740313077272e-05,0.0,1759200782176598756
-0.00015470282835483148,0.0,1759200782196979894
-6.417918439518546e-07,0.0,1759200782217164518
1.049199390922309e-05,0.0,1759200782235872797
-5.247329901463377e-05,0.0,1759200782257722904
-1.2163121730344404e-05,0.0,1759200782276105331
-3.3121961913509264e-05,0.0,1759200782297904279
2.2144981826987598e-05,0.0,1759200782316092725
4.0588233120607885e-05,0.0,1759200782337153270
-7.246187678368999e-05,0.0,1759200782356914972
3.3854292739084985e-05,0.0,1759200782376411867
-7.776927935155362e-05,0.0,1759200782396846843
3.84308494009134e-05,0.0,1759200782416856136
4.8416142864195035e-05,0.0,1759200782435700273
2.5607874113979753e-06,0.0,1759200782457708679
3.756769366467373e-05,0.0,1759200782476292205
3.143963683569637e-06,0.0,1759200782497878949
3.871467804994761e-05,0.0,1759200782516196562
4.975497390191383e-05,0.0,1759200782536788046
-1.4384368471099034e-05,0.0,1759200782556648190
3.543157661456201e-05,0.0,1759200782576388678
-5.612549851626311e-05,0.0,1759200782597514719
1.8558375453379752e-05,0.0,1759200782615855260
5.530704388759448e-05,0.0,1759200782636496393
1.0611217233407136e-05,0.0,1759200782657990316
4.3003387809366476e-05,0.0,1759200782675891076
0.00010495461614660939,0.0,1759200782698234445
5.700854579386853e-05,0.0,1759200782716228160
4.3203644697767434e-05,0.0,1759200782736203723
9.938673397885111e-05,0.0,1759200782758084850
5.556803777934479e-05,0.0,1759200782775926443
0.00013002502222782025,0.0,1759200782797975474
2.8745044801130738e-05,0.0,1759200782815910399
-2.198577592792683e-05,0.0,1759200782836563993
0.00011519932885481913,0.0,1759200782857049747
-1.8605625505195385e-05,0.0,1759200782877111458
-0.00013798615637700202,0.0,1759200782897564948
-3.600660860502839e-05,0.0,1759200782916602318
-2.6100757871068407e-05,0.0,1759200782936208032
-7.338230575794499e-05,0.0,1759200782957698818
-3.949217652114897e-05,0.0,1759200782975982526
-6.103635780043853e-05,0.0,1759200782997757130
-2.6793915147109418e-05,0.0,1759200783015923808
9.29904742041867e-06,0.0,1759200783036836054
-9.564327423517152e-05,0.0,1759200783057205615
8.964858554057822e-06,0.0,1759200783077102733
-9.24206113551e-05,0.0,1759200783096829526
1.3218293637248002e-05,0.0,1759200783117233491
1.9861924377095273e-05,0.0,1759200783135538949
-2.471544313609396e-05,0.0,1759200783157933393
2.808123476468007e-06,0.0,1759200783175996654
-2.09886032544344e-05,0.0,1759200783197748391
7.240560568149017e-06,0.0,1759200783215933108
3.8139964041131505e-05,0.0,1759200783236505591
-6.135596587432774e-05,0.0,1759200783256973322
3.2423808978193324e-05,0.0,1759200783276896063
-8.126845916692998e-05,0.0,1759200783297333468
3.999364254775865e-05,0.0,1759200783316642000
4.9697933067991546e-05,0.0,1759200783335779079
4.246756232792648e-06,0.0,1759200783358193083
2.5503518730578934e-05,0.0,1759200783376280836
-7.505102685868909e-06,0.0,1759200783398262849
4.0189456536029715e-05,0.0,1759200783415970526
5.480368086874455e-05,0.0,1759200783436425012
-4.951250111714788e-05,0.0,1759200783456687055
4.4069972487816445e-05,0.0,1759200783476887857
-6.233210135268274e-05,0.0,1759200783497024759
4.414951425873371e-05,0.0,1759200783517122635
5.254194344532404e-05,0.0,1759200783535925545
9.540358494861211e-06,0.0,1759200783558078848
4.263067100786599e-05,0.0,1759200783575814558
1.1661226180088573e-05,0.0,1759200783598746471
4.562075936573917e-05,0.0,1759200783616078446
5.4968470434683504e-05,0.0,1759200783636542753
-2.6085104105199062e-06,0.0,1759200783657424747
4.2537432096851215e-05,0.0,1759200783676866111
-4.5955270333494423e-05,0.0,1759200783697294126
2.0851410754512957e-05,0.0,1759200783716110780
5.393294757599876e-05,0.0,1759200783736876210
-5.2131473438182504e-05,0.0,1759200783756940827
4.5278820484846306e-05,0.0,1759200783776532966
-4.822081077972036e-05,0.0,1759200783796945665
4.6998149317580605e-05,0.0,1759200783817025072
4.946290009711416e-05,0.0,1759200783835784510
0.00013144176026659858,0.0,1759200783857645532
8.428459295792352e-05,0.0,1759200783876371514
0.00011412829256972301,0.0,1759200783897702680
6.472930674715015e-05,0.0,1759200783916306842
1.141165016974556e-05,0.0,1759200783936844360
0.00015793406696279025,0.0,1759200783956867912
1.2094090736502225e-05,0.0,1759200783977100484
0.00014747776978655863,0.0,1759200783997361844
-9.661888158916747e-06,0.0,1759200784016698290
-1.9191898640486632e-05,0.0,1759200784036060342
4.4368069215869845e-05,0.0,1759200784057842625
4.922168657736599e-06,0.0,1759200784075987314
-3.722865291912799e-05,0.0,1759200784096906544
-0.0001405686899182537,0.0,1759200784117307410
-3.980777588615809e-05,0.0,1759200784136722595
-0.00013241284352056876,0.0,1759200784156922348
-2.3087106831019716e-05,0.0,1759200784176772209
-0.00011406253562985348,0.0,1759200784197035466
-7.385710991105574e-06,0.0,1759200784216861729
7.415036321520831e-07,0.0,1759200784235806042
-4.1107017680356736e-05,0.0,1759200784257573858
-1.3686917759219963e-05,0.0,1759200784276092111
9.230748927956578e-05,0.0,1759200784297897756
2.77846745435376e-05,0.0,1759200784315504845
4.268611750029659e-06,0.0,1759200784337055004
0.0001533838065999799,0.0,1759200784357247686
4.750427531545817e-06,0.0,1759200784377191661
0.00016369478989758664,0.0,1759200784396695474
-2.813315478720623e-06,0.0,1759200784416738422
-2.1894356670358386e-05,0.0,1759200784435545242
3.793746622573547e-05,0.0,1759200784457483186
-1.5826683807935772e-05,0.0,1759200784475762403
1.9820771953129617e-05,0.0,1759200784498817139
-3.0731544264893816e-05,0.0,1759200784516030880
-4.615393762143701e-05,0.0,1759200784537137445
8.220237279634002e-05,0.0,1759200784557420231
-3.9334350066466605e-05,0.0,1759200784576999293
9.03577982047177e-05,0.0,1759200784597707020
-5.4851476329869516e-05,0.0,1759200784616476186
-6.476551982726661e-05,0.0,1759200784636198981
-8.527855625606562e-06,0.0,1759200784657694878
-4.97998304983489e-05,0.0,1759200784675988255
8.929598186700356e-05,0.0,1759200784697721193
-3.148702356004658e-05,0.0,1759200784716244973
-5.343157874323888e-05,0.0,1759200784736112487
0.00011749076315351398,0.0,1759200784757430199
-5.794860203339885e-05,0.0,1759200784777048775
0.00012180892588449637,0.0,1759200784796816882
1.9393763036384818e-05,0.0,1759200784816129463
-0.00010025098040205047,0.0,1759200784836326120
0.00025560717643116626,0.0,1759200784857205596
-0.00010078565535597453,0.0,1759200784876654557
-4.104025852143709e-06,0.0,1759200784897190104
-0.00013637386809113784,0.0,1759200784916355325
-0.0001323482169837146,0.0,1759200784935844872
-7.504803895027077e-05,0.0,1759200784958029575
-9.44829094174817e-05,0.0,1759200784976120263
-6.009467440573678e-05,0.0,1759200784998267678
-8.353967883714194e-05,0.0,1759200785015674807
-0.00010769144615464647,0.0,1759200785037013018
8.659468622150335e-06,0.0,1759200785057220771
-8.849964439532237e-05,0.0,1759200785076888360
3.4533302682403125e-05,0.0,1759200785097380721
-8.533162442815447e-05,0.0,1759200785117153910
-8.547077192870818e-05,0.0,1759200785136172298
-2.4725714379458053e-05,0.0,1759200785157686413
-5.200527397261944e-05,0.0,1759200785175447394
-1.962751409660537e-05,0.0,1759200785197698825
-4.867655509174766e-05,0.0,1759200785215707710
-8.004292054920822e-05,0.0,1759200785236833203
3.969751624279174e-05,0.0,1759200785257538874
-7.160634227795093e-05,0.0,1759200785276783039
2.463123883941304e-05,0.0,1759200785297656698
-7.752492878310202e-05,0.0,1759200785316703482
-7.723805319908188e-05,0.0,1759200785335550978
-2.8060459456620616e-05,0.0,1759200785357403001
-4.82420564346784e-05,0.0,1759200785376218971
-2.0312513472555254e-05,0.0,1759200785397614847
-5.8351899992942324e-05,0.0,1759200785416069011
-6.866978317722057e-05,0.0,1759200785437092333
2.6517644492305068e-05,0.0,1759200785456795160
-5.29124342628215e-05,0.0,1759200785476857037
5.526094645262007e-05,0.0,1759200785497339446
-5.1920541647075523e-05,0.0,1759200785517162126
-5.963283339528773e-05,0.0,1759200785535848242
-1.5010289884770275e-05,0.0,1759200785558023263
-4.751189435160267e-05,0.0,1759200785576077590
-1.3736530644567761e-05,0.0,1759200785597840493
-4.77079114351818e-05,0.0,1759200785615547361
-5.648001611745368e-05,0.0,1759200785637102198
4.063618997853263e-05,0.0,1759200785657880414
-5.0321204522537545e-05,0.0,1759200785677106557
5.21870727811183e-05,0.0,1759200785697275700
-5.0847017354379716e-05,0.0,1759200785716903627
-5.807219928187345e-05,0.0,1759200785735696749
-1.732979794730826e-05,0.0,1759200785758896033
-4.9571828093269856e-05,0.0,1759200785775933797
-1.879193467408796e-05,0.0,1759200785799023554
-5.207492843904164e-05,0.0,1759200785815761110
-5.3878677043562796e-05,0.0,1759200785835970152
-6.540375868864287e-06,0.0,1759200785858135670
-3.018443263953344e-05,0.0,1759200785876157829
3.1293266251697515e-05,0.0,1759200785897968191
-3.696618905887621e-05,0.0,1759200785915651635
-6.658274199776426e-05,0.0,1759200785937193808
4.2424403445749166e-05,0.0,1759200785956637227
-4.891699221857984e-05,0.0,1759200785977101334
4.5960631252969086e-05,0.0,1759200785997319642
-5.225853696279134e-05,0.0,1759200786016755928
-5.386982519422997e-05,0.0,1759200786036237021
-7.2910074072305925e-06,0.0,1759200786057504166
-2.916438705430107e-05,0.0,1759200786075893856
-4.822035231835989e-06,0.0,1759200786098033165
-2.861778792768119e-05,0.0,1759200786116080030
-5.441855308497854e-05,0.0,1759200786137063127
4.106511926619746e-05,0.0,1759200786157223691
-4.56828411710764e-05,0.0,1759200786176783829
4.53258370637365e-05,0.0,1759200786196692257
-4.454589345527593e-05,0.0,1759200786216665711
-4.660724432267803e-05,0.0,1759200786235954019
-3.167588094689746e-06,0.0,1759200786257368766
-2.387095405171418e-05,0.0,1759200786276070856
-0.00013374036711294543,0.0,1759200786298144214
-8.106163124933429e-05,0.0,1759200786316048608
-2.6926360150053226e-05,0.0,1759200786336839724
-0.00019235919413885944,0.0,1759200786357095035
-2.3833089856842087e-05,0.0,1759200786377173921
-0.00017741595053123133,0.0,1759200786397513037
1.5988168905168264e-06,0.0,1759200786417079876
2.1901168202074836e-05,0.0,1759200786435617350
-3.770476333520852e-05,0.0,1759200786457968599
-2.6093773906402513e-06,0.0,1759200786475775994
7.571502139413877e-05,0.0,1759200786498129913
4.1158149234645645e-05,0.0,1759200786515992097
2.6483269657160432e-05,0.0,1759200786536909397
0.00010156273538191335,0.0,1759200786556871863
2.366801576370732e-05,0.0,1759200786576890287
9.914628361045423e-05,0.0,1759200786597388492
9.644119436566083e-06,0.0,1759200786616861156
-1.2892650721011764e-06,0.0,1759200786635601556
2.844673733897205e-05,0.0,1759200786657656287
1.4873428041164679e-07,0.0,1759200786676174254
0.00011732447141034087,0.0,1759200786698358887
3.994913727097216e-06,0.0,1759200786715810021
-3.578315016178385e-05,0.0,1759200786736981839
0.000257953493484989,0.0,1759200786757248188
-2.5908790218157426e-05,0.0,1759200786776968058
0.0002958170868865838,0.0,1759200786796908031
-7.877213219428054e-06,0.0,1759200786816853047
-6.955608362451043e-05,0.0,1759200786835731779
0.00012537700852208866,0.0,1759200786858137491
-5.6553137409716105e-05,0.0,1759200786876110496
-0.00010154092358036054,0.0,1759200786897641100
-0.00011890800501937675,0.0,1759200786916094493
-0.00011330348218329192,0.0,1759200786935559315
-9.015007835281719e-05,0.0,1759200786958154461
-9.109252277023147e-05,0.0,1759200786975980838
-5.955382215572103e-05,0.0,1759200786998147380
-7.916043500885346e-05,0.0,1759200787015999036
-8.494253611447256e-05,0.0,1759200787036656127
-0.00028743038280387625,0.0,1759200787057639007
-6.796969336432003e-05,0.0,1759200787076716721
1.0020562843033833e-05,0.0,1759200787097381684
-2.3426876471440654e-05,0.0,1759200787116925325
-2.347554639180297e-05,0.0,1759200787136510526
7.1448002056163905e-06,0.0,1759200787157453071
-7.175702936214532e-06,0.0,1759200787175944200
0.00013331802333467008,0.0,1759200787198046121
4.753201450620569e-05,0.0,1759200787216180651
-4.6110353250090336e-05,0.0,1759200787236581378
0.00024663513134586646,0.0,1759200787257241313
-5.353549018728801e-05,0.0,1759200787276523952
0.0002387070297014883,0.0,1759200787296993958
-8.014948974285121e-05,0.0,1759200787316597123
-9.412558722683181e-05,0.0,1759200787336043541
4.448138623038354e-05,0.0,1759200787357953026
-3.531108116316956e-05,0.0,1759200787375863864
3.683004139586723e-05,0.0,1759200787398005174
-4.480370106659432e-05,0.0,1759200787416151492
-0.00013345573862463727,0.0,1759200787436966540
0.0004131470226897376,0.0,1759200787457207304
-0.00011116264614835822,0.0,1759200787476748143
0.00014241521620312041,0.0,1759200787497796613
-0.00018564888381966387,0.0,1759200787516347988
-0.00020264262940537092,0.0,1759200787536013714
-8.217464242921645e-05,0.0,1759200787557831887
-0.0001631667648105895,0.0,1759200787575841982
-7.558033300140028e-05,0.0,1759200787598669514
-0.00015943702293256948,0.0,1759200787616357792
-0.00017988478475749678,0.0,1759200787637177374
0.0003107820859614613,0.0,1759200787657094975
-0.00014165506474704174,0.0,1759200787676350034
-0.0001394492830823174,0.0,1759200787697292974
-0.00018205480290274897,0.0,1759200787717183665
-0.00017117535988858562,0.0,1759200787735516273
-0.00014990757973464846,0.0,1759200787758252361
-0.00014100141912861547,0.0,1759200787776157384
-0.0001222451654736299,0.0,1759200787797502322
-0.00011558747061959709,0.0,1759200787815981920
-0.00010636250529315895,0.0,1759200787836649769
-8.659515150082192e-05,0.0,1759200787857050164
-8.541961118919544e-05,0.0,1759200787877036310
-6.860381005939208e-05,0.0,1759200787896861531
-6.990055927094583e-05,0.0,1759200787916439951
-6.467683149953064e-05,0.0,1759200787936019510
-5.2164324086005174e-05,0.0,1759200787958032520
-5.225665066327017e-05,0.0,1759200787975854196
-4.238334034256288e-05,0.0,1759200787998351992
-4.383900479986535e-05,0.0,1759200788016034539
-4.0659557466096524e-05,0.0,1759200788036103180
9.816182663196216e-05,0.0,1759200788057933350
2.6096018805299998e-05,0.0,1759200788076120652
8.659097136514852e-05,0.0,1759200788097918981
9.715286036073188e-06,0.0,1759200788115856764
-7.099799852768631e-05,0.0,1759200788136756926
0.0001851658013838878,0.0,1759200788157291673
-6.74532725121898e-05,0.0,1759200788176589270
0.00018438940963948566,0.0,1759200788197348249
-9.76317411459864e-05,0.0,1759200788216328766
-0.00010690090322038845,0.0,1759200788235704361
1.4623878323179784e-05,0.0,1759200788257705432
-4.929505263092215e-05,0.0,1759200788276268128
-0.0002526470033092039,0.0,1759200788297978106
-0.0001710044876963112,0.0,1759200788315669907
-8.966936027470537e-05,0.0,1759200788337007898
-0.0003435388161795355,0.0,1759200788356803908
-8.316281689487573e-05,0.0,1759200788376567472
-0.00030876967371369917,0.0,1759200788397121849
-3.448331858695204e-05,0.0,1759200788416639678
-1.2509790953781632e-05,0.0,1759200788435660964
-0.00011453653626412186,0.0,1759200788458004788
-4.2645011922227524e-05,0.0,1759200788476139702
-9.432370045088615e-05,0.0,1759200788498192708
-2.0043526899935017e-05,0.0,1759200788515928168
5.873041558258735e-05,0.0,1759200788536406024
-0.00017646991688174098,0.0,1759200788557185084
6.080691652875819e-05,0.0,1759200788576391348
-0.00016321694485386368,0.0,1759200788596850579
7.443108464930804e-05,0.0,1759200788616812274
9.512948962055027e-05,0.0,1759200788635641164
2.9027123092719847e-06,0.0,1759200788657553999
7.250817375877103e-05,0.0,1759200788676274855
9.754769339057421e-06,0.0,1759200788698053574
7.935992940989457e-05,0.0,1759200788715787367
9.92276287823134e-05,0.0,1759200788736764979
-9.636377358401783e-05,0.0,1759200788757033003
8.208125817571249e-05,0.0,1759200788776649957
-0.00011433734201232413,0.0,1759200788797264660
9.579281093934758e-05,0.0,1759200788816368980
0.00010950845687360104,0.0,1759200788835923526
2.1281631433140368e-05,0.0,1759200788858014774
8.639041258000695e-05,0.0,1759200788876121450
0.00010500964369428087,0.0,1759200788897006415
0.0001272222626407065,0.0,1759200788917055301
9.756304988833135e-05,0.0,1759200788937046297
0.00010407550469457366,0.0,1759200788957154787
7.695310756066997e-05,0.0,1759200788976967074
8.542580532063161e-05,0.0,1759200788997275884
6.781512822308097e-05,0.0,1759200789015844061
4.992497292203072e-05,0.0,1759200789036638781
7.962616243651336e-05,0.0,1759200789056962669
3.988104945798991e-05,0.0,1759200789076744627
7.997208409762013e-05,0.0,1759200789097085211
2.9476510866494507e-05,0.0,1759200789117160138
2.326389074208567e-05,0.0,1759200789136425727
0.0001656702501621478,0.0,1759200789158591873
7.675980188586746e-05,0.0,1759200789175886040
0.0001368789361794322,0.0,1759200789198321285
4.756452793064445e-05,0.0,1759200789216258473
-4.503875052351912e-05,0.0,1759200789237354423
0.00024577604990235814,0.0,1759200789257099975
-3.1207481835010504e-05,0.0,1759200789277021630
-1.4194175040461992e-05,0.0,1759200789297584478
-6.845003736986855e-05,0.0,1759200789316604782
-6.560079188161911e-05,0.0,1759200789336158610
-4.75458550313049e-05,0.0,1759200789358205821
-5.0864554815897454e-05,0.0,1759200789376092823
-3.8420882666074666e-05,0.0,1759200789397726442
-4.280999869379585e-05,0.0,1759200789415981791
-4.809231244859708e-05,0.0,1759200789437443834
-1.0642166068207496e-05,0.0,1759200789456644690
-3.746319245198844e-05,0.0,1759200789476677531
-0.0002568366600846686,0.0,1759200789497467787
-3.21213088952589e-05,0.0,1759200789516555466
-1.4511335324812289e-05,0.0,1759200789536042042
-0.0001087651727214004,0.0,1759200789558151427
-4.1691961277036064e-05,0.0,1759200789575523855
-8.734787159506919e-05,0.0,1759200789597999616
-2.2259693022063806e-05,0.0,1759200789616074157
4.686323034765851e-05,0.0,1759200789637083586
-0.00017071270796208078,0.0,1759200789657179923
3.857441840980199e-05,0.0,1759200789676737913
-0.0001598086058659226,0.0,1759200789697306561
6.185553978524906e-05,0.0,1759200789716544635
8.030147266809033e-05,0.0,1759200789735885219
-2.0067784478103025e-06,0.0,1759200789757656749
3.631425602900453e-05,0.0,1759200789776064223
-2.2242616837508e-05,0.0,1759200789797962213
6.244830675004871e-05,0.0,1759200789815904163
8.82590716152656e-05,0.0,1759200789837259114
-0.00010548884362656894,0.0,1759200789856755884
6.3200628082706e-05,0.0,1759200789876962310
-0.00013061861571648996,0.0,1759200789896652125
6.065060227431154e-05,0.0,1759200789916879973
7.722387641378377e-05,0.0,1759200789936063098
3.052457632640059e-07,0.0,1759200789957730584
6.018751159825461e-05,0.0,1759200789975876430
3.896198797440421e-06,0.0,1759200789997767883
6.438419861444211e-05,0.0,1759200790015703537
8.20921376955055e-05,0.0,1759200790036966612
-2.1806596713125798e-05,0.0,1759200790057420278
6.392993635517786e-05,0.0,1759200790076347199
-2.373032453854621e-05,0.0,1759200790097049382
2.402252636872717e-05,0.0,1759200790115768499
7.643025270534531e-05,0.0,1759200790136995802
-0.00011082801611386345,0.0,1759200790156667389
5.563695418421438e-05,0.0,1759200790176775300
-0.0001111882560987892,0.0,1759200790197253807
6.442976465910827e-05,0.0,1759200790217167368
7.08262826723266e-05,0.0,1759200790236021172
-9.367547374948543e-06,0.0,1759200790257667909
3.2718602165538984e-05,0.0,1759200790275878346
-9.442851150016155e-06,0.0,1759200790297751036
3.4788956700194895e-05,0.0,1759200790316083076
8.271018312396852e-05,0.0,1759200790336915171
-8.224518156051373e-05,0.0,1759200790357664395
7.647735329322788e-05,0.0,1759200790376952650
-8.04381987749868e-05,0.0,1759200790397417593
8.250299460629305e-05,0.0,1759200790417024557
8.601909740833452e-05,0.0,1759200790436006775
9.871074166522778e-06,0.0,1759200790457695006
4.656361403690964e-05,0.0,1759200790476176547
5.9098365448520806e-06,0.0,1759200790497988738
4.643188226204452e-05,0.0,1759200790515705267
8.890016591668273e-05,0.0,1759200790536865891
-6.88042510866498e-05,0.0,1759200790557237704
7.563737139897616e-05,0.0,1759200790576656180
-6.886401111932854e-05,0.0,1759200790597257570
8.102548611197941e-05,0.0,1759200790616851330
9.097003177406215e-05,0.0,1759200790635512523
3.0931662771626954e-05,0.0,1759200790658042996
5.5306392066086006e-05,0.0,1759200790676064402
1.101063359778185e-05,0.0,1759200790698023083
6.829201390535541e-05,0.0,1759200790715965414
8.460869919188448e-05,0.0,1759200790736797009
-5.037908621775791e-05,0.0,1759200790756850326
6.741199323106687e-05,0.0,1759200790776929870
-7.083722129777682e-05,0.0,1759200790796749287
6.550567073118675e-05,0.0,1759200790816459765
7.483397055438444e-05,0.0,1759200790835663032
2.022215745959576e-05,0.0,1759200790858179407
6.10464809851623e-05,0.0,1759200790876038198
1.9187754147465333e-05,0.0,1759200790897726620
6.059129141042207e-05,0.0,1759200790915557923
7.189064376695106e-05,0.0,1759200790936368683
-3.275924432317518e-06,0.0,1759200790956577683
5.317794102875787e-05,0.0,1759200790976366287
-5.554222305803448e-05,0.0,1759200790997459900
3.0041114285264194e-05,0.0,1759200791016019861
7.080336291662766e-05,0.0,1759200791037171770
1.6393967564566144e-05,0.0,1759200791057977589
5.3957052113009605e-05,0.0,1759200791075875751
1.595383174195545e-05,0.0,1759200791097869958
5.4213408136112896e-05,0.0,1759200791115734003
6.447010518539946e-05,0.0,1759200791136848408
-6.131247818513248e-06,0.0,1759200791156652574
4.5206490904164284e-05,0.0,1759200791176815327
-1.3467283472987303e-05,0.0,1759200791197035159
1.6863473037856133e-05,0.0,1759200791216047187
5.181438236804378e-05,0.0,1759200791236768396
-6.225493633719386e-05,0.0,1759200791257553054
5.142146697998958e-05,0.0,1759200791276408178
-5.450375854093256e-05,0.0,1759200791297577156
6.350551871842463e-05,0.0,1759200791316345230
6.510411884685086e-05,0.0,1759200791336530449
1.3313044630689606e-05,0.0,1759200791358618516
4.0269927505210544e-05,0.0,1759200791375791120
1.1549294737170394e-05,0.0,1759200791397943722
3.876641046826983e-05,0.0,1759200791415805516
6.794379813278383e-05,0.0,1759200791436834070
-4.467471364419441e-05,0.0,1759200791456661493
5.468281661531161e-05,0.0,1759200791476515973
-4.5786663279779725e-05,0.0,1759200791497003276
5.721368593161947e-05,0.0,1759200791516828286
5.9015626603588064e-05,0.0,1759200791535991457
1.0211331973612548e-05,0.0,1759200791557901233
3.4424210591015574e-05,0.0,1759200791575618209
8.720697317088516e-06,0.0,1759200791598184143
3.462237656814295e-05,0.0,1759200791615686952
6.2042227406798e-05,0.0,1759200791636384565
-3.556801235444573e-05,0.0,1759200791657521663
5.8871956205594325e-05,0.0,1759200791676327171
-3.2423736353504516e-05,0.0,1759200791697416307
6.562786766508319e-05,0.0,1759200791716438896
7.012861972659046e-05,0.0,1759200791735912125
3.0745556774101404e-05,0.0,1759200791758384904
5.8397722368133155e-05,0.0,1759200791775625359
2.8817682465585003e-05,0.0,1759200791798091429
5.5546474227389684e-05,0.0,1759200791816032367
6.211445980634238e-05,0.0,1759200791836620503
-2.2852493639455237e-05,0.0,1759200791856941836
4.933993785650255e-05,0.0,1759200791877158121
-3.818531032673892e-05,0.0,1759200791897168118
4.759576695168267e-05,0.0,1759200791916806160
5.307417222903483e-05,0.0,1759200791935772969
1.7557567521102156e-05,0.0,1759200791957946150
4.24311333723881e-05,0.0,1759200791976205372
1.5804056284978722e-05,0.0,1759200791998004945
4.189260410199233e-05,0.0,1759200792015631978
4.833971431646137e-05,0.0,1759200792037121699
2.3151899377758556e-07,0.0,1759200792057263300
3.549020956441039e-05,0.0,1759200792077122350
-3.532233257750589e-05,0.0,1759200792097551183
1.8511113617210915e-05,0.0,1759200792116115571
4.4961163082758945e-05,0.0,1759200792136746442
-3.8066389357687284e-05,0.0,1759200792157382400
3.98901601545768e-05,0.0,1759200792176760257
1.456692680849312e-05,0.0,1759200792197754248
3.758283790217631e-05,0.0,1759200792216007227
3.9173549029261594e-05,0.0,1759200792236081152
3.2688067410872738e-06,0.0,1759200792257890608
2.1462944789641076e-05,0.0,1759200792275611113
0.00012497567307242257,0.0,1759200792298373755
7.255920873873895e-05,0.0,1759200792316118044
1.8549254827533113e-05,0.0,1759200792336870275
0.00018078480275740582,0.0,1759200792357731256
5.247345226753786e-06,0.0,1759200792376945075
0.00016323197309414276,0.0,1759200792397292291
-1.8447614140557197e-05,0.0,1759200792416587750
-2.877732146173817e-05,0.0,1759200792435893560
4.400702949919398e-05,0.0,1759200792458113391
-2.8145225681683135e-06,0.0,1759200792475565450
3.4984679421059034e-05,0.0,1759200792498036412
-1.2865923192132156e-05,0.0,1759200792515483016
-6.214803905888238e-05,0.0,1759200792536462858
0.000103765031169821,0.0,1759200792556847119
-4.9577018236698166e-05,0.0,1759200792576754744
-5.533127555684798e-05,0.0,1759200792596707712
2.030647850549178e-05,0.0,1759200792618122846
-2.187502203430558e-05,0.0,1759200792635699125
1.6484769273401046e-05,0.0,1759200792658066557
-2.6711850428819717e-05,0.0,1759200792675981439
-0.00011593989695961241,0.0,1759200792698240435
-7.520518729278687e-05,0.0,1759200792715866789
-5.637096251547429e-05,0.0,1759200792736658819
-0.00013192542728006267,0.0,1759200792756817753
-4.6407386276602736e-05,0.0,1759200792776758352
-0.00012141837037205779,0.0,1759200792797560285
-2.3006537951854777e-05,0.0,1759200792816398362
-1.0625585911038209e-05,0.0,1759200792835803595
-3.983066236981098e-05,0.0,1759200792858098310
-1.945443611950303e-05,0.0,1759200792875928696
-4.006041870739333e-05,0.0,1759200792898018894
-1.7400517327731695e-06,0.0,1759200792916089890
1.1717860165761414e-05,0.0,1759200792937444996
-6.480517249672906e-05,0.0,1759200792957192847
1.0007758957439316e-05,0.0,1759200792976620199
-6.489696620299963e-05,0.0,1759200792997260567
1.725854684451122e-05,0.0,1759200793016891931
2.4930369656338214e-05,0.0,1759200793036031417
-5.610507109814582e-06,0.0,1759200793058103780
1.9848416724098487e-05,0.0,1759200793076020953
-2.801590451564841e-06,0.0,1759200793097874302
2.2379694453520097e-05,0.0,1759200793115942621
3.03553171220213e-05,0.0,1759200793136572880
-1.1932056865979546e-05,0.0,1759200793156885208
2.1570784259338744e-05,0.0,1759200793176962653
-1.4189217068097925e-05,0.0,1759200793197298106
5.514718302426855e-06,0.0,1759200793216286634
2.8159356971709292e-05,0.0,1759200793236865940
-4.491499406418508e-05,0.0,1759200793257085367
2.537610698275624e-05,0.0,1759200793276506729
3.4110577865182006e-06,0.0,1759200793297993330
2.5428042214057795e-05,0.0,1759200793316173817
2.776016359249182e-05,0.0,1759200793336304400
-4.6503498991748175e-06,0.0,1759200793357873303
1.2356302160230076e-05,0.0,1759200793376178661
-4.105915570089284e-06,0.0,1759200793398465277
1.427475950876541e-05,0.0,1759200793416121781
3.381732715010917e-05,0.0,1759200793436832508
-3.418780431147959e-05,0.0,1759200793457084047
2.8016995451441245e-05,0.0,1759200793476818728
-3.450409034216546e-05,0.0,1759200793497234418
3.0319263429827728e-05,0.0,1759200793516970463
3.2009092212863835e-05,0.0,1759200793535877009
2.546474751151378e-06,0.0,1759200793558013807
1.7689847434369686e-05,0.0,1759200793575988171
2.1856989844946882e-06,0.0,1759200793598751370
1.8273107655011177e-05,0.0,1759200793616306925
3.5738605449031434e-05,0.0,1759200793636748222
-2.7319273082789767e-05,0.0,1759200793656712437
2.782669247330497e-05,0.0,1759200793676970777
-2.9435428766816816e-05,0.0,1759200793697323681
3.0743276817360884e-05,0.0,1759200793716571595
3.466520715053494e-05,0.0,1759200793735505212
1.0868217449392865e-05,0.0,1759200793757506566
2.046288402110097e-05,0.0,1759200793775700964
3.41923141549925e-06,0.0,1759200793797607341
1.657441448787804e-05,0.0,1759200793816295272
3.101270483647999e-05,0.0,1759200793837684992
-2.7317969957897048e-05,0.0,1759200793857318325
2.3542281652514685e-05,0.0,1759200793877173435
-2.9392007518898853e-05,0.0,1759200793897136538
2.5564488644845854e-05,0.0,1759200793916346874
2.9066134775809063e-05,0.0,1759200793936176722
4.599087929307757e-06,0.0,1759200793957612175
2.2081691319727197e-05,0.0,1759200793975980569
4.880120198654734e-06,0.0,1759200793998044067
2.3364712408028953e-05,0.0,1759200794015528154
2.814365454358567e-05,0.0,1759200794037233489
-2.5576634443966568e-05,0.0,1759200794056723678
2.137736839997603e-05,0.0,1759200794076378731
-2.3088802474658518e-05,0.0,1759200794097317953
2.464617617341798e-05,0.0,1759200794116742204
2.7680196095746333e-05,0.0,1759200794136143977
8.366441037010465e-06,0.0,1759200794158014154
2.2124713209400176e-05,0.0,1759200794175866645
8.244870858789142e-06,0.0,1759200794198385548
2.2496536409167765e-05,0.0,1759200794215819235
2.3354773271410432e-05,0.0,1759200794236101812
2.4548644286648287e-06,0.0,1759200794257903016
2.2145504270469998e-05,0.0,1759200794276727975
-2.0049810614290082e-05,0.0,1759200794297766094
1.2521859125889595e-05,0.0,1759200794316166004
2.8031474196370494e-05,0.0,1759200794336967872
-2.205452793853356e-05,0.0,1759200794357518116
2.508193542922531e-05,0.0,1759200794376735324
2.5888886766408645e-05,0.0,1759200794396003030
4.023371386503428e-06,0.0,1759200794418076919
1.513431247717614e-05,0.0,1759200794435546901
3.7311402099033465e-06,0.0,1759200794457980266
1.4883927795800204e-05,0.0,1759200794476032117
4.614354109424563e-06,0.0,1759200794498234704
1.5500735514149536e-05,0.0,1759200794516191596
2.76497550807534e-05,0.0,1759200794536547275
-1.512368637824998e-05,0.0,1759200794557078947
2.4422946965357716e-05,0.0,1759200794576369546
-1.3774943526902849e-05,0.0,1759200794597673976
2.6784926906638025e-05,0.0,1759200794616974465
2.7099893464042388e-05,0.0,1759200794635702559
8.382673379979434e-06,0.0,1759200794658113566
1.715016609185507e-05,0.0,1759200794675956497
0.00013402670667081532,0.0,1759200794698278555
6.926715705273972e-05,0.0,1759200794715843111
4.062335502346272e-06,0.0,1759200794736920367
0.0002180566706492123,0.0,1759200794756635794
9.847892433154234e-06,0.0,1759200794776660590
0.00020190314432385175,0.0,1759200794797307065
-2.1174924561181762e-05,0.0,1759200794816684771
-3.449407243367882e-05,0.0,1759200794835539866
5.455390672741505e-05,0.0,1759200794858014214
1.3663871593243008e-06,0.0,1759200794877103590
4.7802379559445764e-05,0.0,1759200794898030477
-4.230200147958852e-05,0.0,1759200794915910999
-7.087722039718445e-05,0.0,1759200794937224235
0.00011898869623059166,0.0,1759200794956602857
-4.9004598912131674e-05,0.0,1759200794976865773
0.00013563664566051877,0.0,1759200794997244019
-5.9615029592669845e-05,0.0,1759200795016892068
-7.649729495662481e-05,0.0,1759200795036000116
3.6931038573002623e-07,0.0,1759200795057396190
-5.728531204903788e-05,0.0,1759200795076161640
-9.927181780512519e-05,0.0,1759200795097485855
-7.832375440631716e-05,0.0,1759200795115916654
-6.584724530426531e-05,0.0,1759200795136460160
-9.034497097537079e-05,0.0,1759200795156763930
-5.661194152385211e-05,0.0,1759200795176640172
-4.541951012015501e-05,0.0,1759200795195765219
-6.048670818380225e-05,0.0,1759200795217781787
-3.741203103258754e-05,0.0,1759200795235720007
4.7360150408009426e-05,0.0,1759200795257911004
-1.1577750909606964e-05,0.0,1759200795275843300
-5.372127149993691e-05,0.0,1759200795297737044
-3.724073566573258e-05,0.0,1759200795315770837
-3.113099144661831e-05,0.0,1759200795335928703
-5.36568720430188e-05,0.0,1759200795357770762
-2.3919305605274972e-05,0.0,1759200795377046552
-4.6528924185694105e-05,0.0,1759200795397190264
-2.8229133453150878e-05,0.0,1759200795415811043
-8.846097824294295e-06,0.0,1759200795436894974
-2.6789720075937225e-05,0.0,1759200795457993594
-7.827016140190341e-06,0.0,1759200795475551387
-5.245690464172726e-05,0.0,1759200795496813580
5.386767299337558e-07,0.0,1759200795516919405
4.174904152551976e-06,0.0,1759200795536092938
-1.706603183805482e-05,0.0,1759200795558110514
-2.9291041559422415e-06,0.0,1759200795575575341
-1.3145352954566114e-05,0.0,1759200795598400936
1.266929701643412e-06,0.0,1759200795615612164
1.5656601071310614e-05,0.0,1759200795636940667
-3.11381416657949e-05,0.0,1759200795657326169
1.5193025502859405e-05,0.0,1759200795676362929
-2.6681826344330986e-05,0.0,1759200795697481480
1.9462683216342304e-05,0.0,1759200795716949692
2.0804053903508877e-05,0.0,1759200795736034150
7.914867640777413e-08,0.0,1759200795757709684
1.0476668644994424e-05,0.0,1759200795776136210
-4.172233406472064e-07,0.0,1759200795797466670
1.0433908867453259e-05,0.0,1759200795815884649
2.2486682113832805e-05,0.0,1759200795836709790
-1.8565696111204506e-05,0.0,1759200795857501775
2.0416923518335436e-05,0.0,1759200795876968807
-1.940810202357582e-05,0.0,1759200795896714510
1.9977951062588908e-05,0.0,1759200795916656695
2.079665499208094e-05,0.0,1759200795936104541
2.8970649536630735e-06,0.0,1759200795958412116
1.2244186922630933e-05,0.0,1759200795975859633
2.586202177516887e-06,0.0,1759200795997543233
1.769033536452085e-05,0.0,1759200796015892144
2.209295419070015e-05,0.0,1759200796036853213
-1.0712445211396814e-05,0.0,1759200796057956762
2.164830329691817e-05,0.0,1759200796076268278
-1.165809155146691e-05,0.0,1759200796097059249
2.1457944688308236e-05,0.0,1759200796116972788
2.3263285594797053e-05,0.0,1759200796136265149
8.776995049340412e-06,0.0,1759200796157548760
1.8181466713199657e-05,0.0,1759200796175746757
7.9017762641845e-06,0.0,1759200796197589709
1.7197500484501446e-05,0.0,1759200796216017011
1.9635378402711984e-05,0.0,1759200796236907831
1.5456513632667495e-06,0.0,1759200796257082009
1.452687666099675e-05,0.0,1759200796276988326
-9.699574768340315e-06,0.0,1759200796297223585
8.315093219384685e-06,0.0,1759200796316025691
1.7066657809226146e-05,0.0,1759200796336743306
5.634258752957097e-06,0.0,1759200796357961081
1.3273941198448716e-05,0.0,1759200796375934195
5.281620130902729e-06,0.0,1759200796398078050
1.2996031437866256e-05,0.0,1759200796416018445
1.3450633906896564e-05,0.0,1759200796436183664
1.8334647859196406e-06,0.0,1759200796458175295
7.650289343306267e-06,0.0,1759200796476144481
0.00012812366507582049,0.0,1759200796498266216
6.272433573341233e-05,0.0,1759200796516017198
-4.674033029779381e-06,0.0,1759200796537123963
0.0002205049729705917,0.0,1759200796556681658
1.9709587128445007e-06,0.0,1759200796576590868
6.199853293168768e-05,0.0,1759200796598161224
-1.603350076062724e-05,0.0,1759200796615728418
-2.9172072001929177e-05,0.0,1759200796636190962
6.459668480722621e-05,0.0,1759200796658178209
3.775730125184199e-06,0.0,1759200796675569647
-7.448733649497412e-05,0.0,1759200796697732308
-6.336988755713043e-05,0.0,1759200796715851495
-5.262741240903129e-05,0.0,1759200796736811309
-8.299833955608368e-05,0.0,1759200796757515843
-4.176857223388585e-05,0.0,1759200796776807968
-0.00031403725558102393,0.0,1759200796797477327
-3.0367516114423174e-05,0.0,1759200796816813308
-8.719724718585405e-06,0.0,1759200796836257411
-0.00012998475866217587,0.0,1759200796857740766
-5.072854135772084e-05,0.0,1759200796876171053
1.9723032840017307e-05,0.0,1759200796897493554
3.052085805280088e-05,0.0,1759200796915530471
4.213804040307203e-05,0.0,1759200796936855290
1.5092273686646212e-05,0.0,1759200796957162311
3.6158419166310116e-05,0.0,1759200796976543779
-0.00023688037173866025,0.0,1759200796996970020
2.0443080467733856e-05,0.0,1759200797016691824
4.726703663310042e-05,0.0,1759200797036030984
-5.16218801834465e-05,0.0,1759200797058435735
5.655071874954169e-06,0.0,1759200797075745975
5.794719518669536e-05,0.0,1759200797097932643
6.517390672074063e-05,0.0,1759200797115972808
6.38717670166504e-05,0.0,1759200797136599367
4.837913468846021e-05,0.0,1759200797157150057
5.322868662023661e-05,0.0,1759200797176569915
3.884144801873952e-05,0.0,1759200797197888019
4.480236313221825e-05,0.0,1759200797217242482
4.15511663444432e-05,0.0,1759200797236053733
0.00013590019160921658,0.0,1759200797257637843
5.236065984520486e-05,0.0,1759200797276148253
1.5093953123242311e-05,0.0,1759200797298609411
9.934601653389893e-06,0.0,1759200797315523826
7.5905780244295166e-06,0.0,1759200797336900469
-4.157698288743461e-07,0.0,1759200797357250322
4.8982340130872906e-06,0.0,1759200797376347789
-5.422230835311214e-06,0.0,1759200797397095097
5.174098733172554e-06,0.0,1759200797417026518
5.947849283591502e-06,0.0,1759200797435875875
1.4538303516305568e-06,0.0,1759200797458606298
4.972190694002606e-06,0.0,1759200797475953417
1.619903972435078e-06,0.0,1759200797497604549
4.839270408449398e-06,0.0,1759200797515861756
5.1039854633094525e-06,0.0,1759200797535926769
5.505781950956343e-07,0.0,1759200797558766457
3.058530550801237e-06,0.0,1759200797576125311
6.783082445132374e-07,0.0,1759200797598039135
3.027203032975872e-06,0.0,1759200797616400218
5.699211133060175e-06,0.0,1759200797636914628
-3.4236656878110447e-06,0.0,1759200797657509366
5.018317041375342e-06,0.0,1759200797676878247
-3.207273339973542e-06,0.0,1759200797697201840
5.0892090780298185e-06,0.0,1759200797716899137
5.193970904855624e-06,0.0,1759200797735839686
1.3949576705807577e-06,0.0,1759200797757535096
3.087134063005813e-06,0.0,1759200797776191569
1.2252132638354947e-06,0.0,1759200797798025705
3.03503518851015e-06,0.0,1759200797815726280
4.94616399268964e-06,0.0,1759200797836742239
-1.8778064809366548e-06,0.0,1759200797857724454
4.356486911543816e-06,0.0,1759200797877178408
-1.7425381559623686e-06,0.0,1759200797897582604
4.427471525345294e-06,0.0,1759200797916980312
4.430855770840829e-06,0.0,1759200797936184720
1.6009435246967474e-06,0.0,1759200797957722667
2.8190590322620503e-06,0.0,1759200797975721923
1.4884660828017669e-06,0.0,1759200797998018743
3.5500243458193007e-06,0.0,1759200798015800672
4.03799168838121e-06,0.0,1759200798037254021
-6.096039972779488e-07,0.0,1759200798056857372
3.287329264058307e-06,0.0,1759200798076335487
-6.986209843293479e-07,0.0,1759200798097437435
3.429960382455824e-06,0.0,1759200798116423420
3.5708151073473856e-06,0.0,1759200798135470385
1.956441489471408e-06,0.0,1759200798157824251
2.4363897586127203e-06,0.0,1759200798176226899
1.4419390133724062e-06,0.0,1759200798198251166
2.656844374338589e-06,0.0,1759200798215496954
2.8980965277568845e-06,0.0,1759200798236711576
5.118699049699792e-07,0.0,1759200798257096313
2.4227971481648023e-06,0.0,1759200798276855431
2.536842372345952e-07,0.0,1759200798297336687
2.261404663767301e-06,0.0,1759200798316676247
2.2800993654715192e-06,0.0,1759200798335977491
1.498075163928058e-06,0.0,1759200798358484991
1.882901610646689e-06,0.0,1759200798376133400
1.4183585137894817e-06,0.0,1759200798397484012
1.6752083925107842e-06,0.0,1759200798415781808
1.666876251574128e-06,0.0,1759200798437091147
1.0994993542934717e-06,0.0,1759200798457030349
1.3237789045282865e-06,0.0,1759200798477265364
9.148380472215181e-07,0.0,1759200798497230988
1.1614568876099846e-06,0.0,1759200798516771897
1.0867783663412994e-06,0.0,1759200798536172542
1.021399008639274e-06,0.0,1759200798557885259
9.04215563059688e-07,0.0,1759200798575748063
9.8752024036753e-07,0.0,1759200798598448080
7.47295917822344e-07,0.0,1759200798616244051
6.424328093593814e-07,0.0,1759200798636300077
9.92406838100774e-07,0.0,1759200798657961573
6.835612079427385e-07,0.0,1759200798675961934
1.027119567357713e-06,0.0,1759200798698086528
6.015824010412477e-07,0.0,1759200798716190107
1.6172707980249818e-07,0.0,1759200798736638385
1.7667166327118003e-06,0.0,1759200798757041454
8.775874745892604e-08,0.0,1759200798776284773
1.9648390895909444e-06,0.0,1759200798797092168
-1.4925899740789657e-07,0.0,1759200798816641339
-2.7677692065561204e-07,0.0,1759200798836128311
8.149788607776508e-07,0.0,1759200798857926295
1.6142168821983253e-07,0.0,1759200798876303383
9.143224373375514e-07,0.0,1759200798897984102
8.91750432279151e-08,0.0,1759200798915524106
-7.416556006815776e-07,0.0,1759200798936851457
2.415346724837127e-06,0.0,1759200798957046200
-6.40464310155669e-07,0.0,1759200798976677357
2.6311729868167765e-06,0.0,1759200798997424081
-9.812021874452382e-07,0.0,1759200799016748445
-1.1341275920909106e-06,0.0,1759200799035878632
6.732643565656631e-07,0.0,1759200799057321960
-2.977889969792254e-07,0.0,1759200799075884332
0.0001293087826046648,0.0,1759200799097581184
5.7445582781676266e-05,0.0,1759200799115809982
-1.7489126004789273e-05,0.0,1759200799137048714
0.0002313522619404137,0.0,1759200799157104890
-1.1838122849608081e-05,0.0,1759200799176862694
0.0002230318815932132,0.0,1759200799196751825
-2.8490855319262512e-05,0.0,1759200799216841806
-5.533078160190696e-05,0.0,1759200799235525183
3.581156731084313e-05,0.0,1759200799257567616
-4.41070195236141e-05,0.0,1759200799275555347
-7.172637376102323e-05,0.0,1759200799298204108
-6.920808955732895e-05,0.0,1759200799316097346
-6.420285660561438e-05,0.0,1759200799336360859
-6.684707200875167e-05,0.0,1759200799357023896
