loc_acc_x,loc_acc_y,stamp
0.8386430268776159,0.0,1756544183571555937
0.7547787241898544,0.0,1756544183593039019
0.8948844995930751,0.0,1756544183616991927
0.8053939572590162,0.0,1756544183632158598
0.8228298036767461,0.0,1756544183666680879
0.7405468233090715,0.0,1756544183684837154
0.6664921409781643,0.0,1756544183707197627
0.8024003666813957,0.0,1756544183725607578
0.7221603300132562,0.0,1756544183742812507
0.8103156216239384,0.0,1756544183764924852
0.7292840594615446,0.0,1756544183778821785
0.6563556535153902,0.0,1756544183798391693
0.7159915400403459,0.0,1756544183819858106
0.6443891325675036,0.0,1756544183838907139
0.7648763577016116,0.0,1756544183857169911
0.6883887219314504,0.0,1756544183875028892
0.6195464813960628,0.0,1756544183896006670
0.7073626195912096,0.0,1756544183916075141
0.6366263576320886,0.0,1756544183932774386
0.7722283138375128,0.0,1756544183953788282
0.6950054824537615,0.0,1756544183970564756
0.6255049342083854,0.0,1756544184010052524
0.888919789383587,0.0,1756544184014104610
0.800021256571299,0.0,1756544184031359986
0.8521708530100252,0.0,1756544184066165097
0.7669537677090227,0.0,1756544184084318616
0.6902583909381205,0.0,1756544184104445204
0.7246938300932776,0.0,1756544184130406537
0.6522244470839499,0.0,1756544184142297640
0.6802415985894796,0.0,1756544184164159920
0.6122174387305317,0.0,1756544184179536546
0.5509956948574786,0.0,1756544184199782684
0.669872058632359,0.0,1756544184223004786
0.6028848527691231,0.0,1756544184241286618
0.6954646411221055,0.0,1756544184265104044
0.6259181770098949,0.0,1756544184284290117
0.5633263593089055,0.0,1756544184304611042
0.703082211718979,0.0,1756544184326169351
0.6327687116862597,0.0,1756544184345181692
0.7070544749661319,0.0,1756544184365604694
0.6363490274695187,0.0,1756544184387883059
0.7545856146077106,0.0,1756544184409011390
0.6791270531469396,0.0,1756544184425188352
0.6112104494126522,0.0,1756544184448232946
0.6939923287211461,0.0,1756544184467115692
0.6245930958490316,0.0,1756544184486280218
0.5621337862641285,0.0,1756544184504491792
0.6920358968037194,0.0,1756544184527512526
0.6228323071233475,0.0,1756544184542919331
0.6457092211548788,0.0,1756544184563275816
0.581138299039391,0.0,1756544184585164174
0.5230244691354519,0.0,1756544184601021668
0.5531752443478548,0.0,1756544184622714965
0.4978577199130693,0.0,1756544184639247893
0.6303951614456003,0.0,1756544184659502147
0.5673556453010402,0.0,1756544184676658105
0.5106200807709362,0.0,1756544184701790075
0.5966026738052762,0.0,1756544184718492844
0.5369424064247486,0.0,1756544184732668879
0.6707409418402073,0.0,1756544184754730556
0.6036668476561866,0.0,1756544184769308194
0.7033669723575825,0.0,1756544184791458673
0.633028658183564,0.0,1756544184829358168
0.5697257923652076,0.0,1756544184843792773
0.6285908092798428,0.0,1756544184865622254
0.5657317283518585,0.0,1756544184883706195
0.5091585555166727,0.0,1756544184903111137
0.5736006795151871,0.0,1756544184925486190
0.5162406115636684,0.0,1756544184941596382
0.564532086221054,0.0,1756544184962777055
0.5080788775989487,0.0,1756544184978672876
0.45724817041056476,0.0,1756544185000705364
0.5325827084111571,0.0,1756544185022956719
0.4793244375700414,0.0,1756544185035524008
0.6071167127256991,0.0,1756544185056602180
0.5464050414531292,0.0,1756544185072098411
0.4917645373078163,0.0,1756544185093143723
0.6251180933335785,0.0,1756544185113836598
0.5626062840002206,0.0,1756544185130537722
0.6655365011922644,0.0,1756544185152051442
0.5989809322753972,0.0,1756544185189628083
0.5390828390478575,0.0,1756544185206924651
0.6816470694884589,0.0,1756544185227770592
0.6134712957854817,0.0,1756544185248119158
0.7722972218767901,0.0,1756544185266845837
0.6950674996891111,0.0,1756544185284274766
0.6255607497202,0.0,1756544185305206551
0.6784167957215689,0.0,1756544185324237927
0.610575116149412,0.0,1756544185342072140
0.7082014462616832,0.0,1756544185363191464
0.637381301635515,0.0,1756544185380308146
0.5736384847787167,0.0,1756544185403839045
0.6915153276554741,0.0,1756544185423143609
0.6223637948899267,0.0,1756544185439114386
0.8022062950237008,0.0,1756544185458802741
0.7219856655213307,0.0,1756544185475661357
0.6497870989691976,0.0,1756544185495092835
0.7666088305216935,0.0,1756544185516700323
0.6899479474695241,0.0,1756544185532571147
0.7728321719539352,0.0,1756544185553187213
0.6955489547585416,0.0,1756544185573387319
0.6259940592826875,0.0,1756544185606427335
0.6870255934500539,0.0,1756544185628698416
0.6183230341050485,0.0,1756544185648030667
0.6825849823507829,0.0,1756544185669730341
0.6143264841157047,0.0,1756544185686756811
0.5528849021027755,0.0,1756544185709032670
0.6885935053987849,0.0,1756544185727953790
0.6197341548589065,0.0,1756544185741119419
0.6661653654765705,0.0,1756544185762645221
0.5995488289289135,0.0,1756544185778975171
0.5395939460360222,0.0,1756544185798908196
0.6790688337234467,0.0,1756544185820465300
0.6111619503511021,0.0,1756544185836095374
0.6957701968988825,0.0,1756544185855595259
0.6261931772089943,0.0,1756544185872262578
0.5635682856414039,0.0,1756544185895616097
0.6466712443720485,0.0,1756544185913735138
0.5820041199348437,0.0,1756544185947951290
0.6428961138780221,0.0,1756544185967243811
0.5786033875857922,0.0,1756544185989278389
0.520743048827213,0.0,1756544186006148699
0.5616302472367287,0.0,1756544186025699645
0.5054672225130559,0.0,1756544186043934000
0.6017123855760684,0.0,1756544186064634751
0.541443823779899,0.0,1756544186087933961
0.48729944140190906,0.0,1756544186103271098
0.6350737337028199,0.0,1756544186126922636
0.5715663603325379,0.0,1756544186146206526
0.7415926813745399,0.0,1756544186163703178
0.6674314860622387,0.0,1756544186187952037
0.6006883374560148,0.0,1756544186202109350
0.6644951102476307,0.0,1756544186226095408
0.5980358870291784,0.0,1756544186244058532
0.8837917493933285,0.0,1756544186265028473
0.7954125744539957,0.0,1756544186280649932
0.7158713170085962,0.0,1756544186300563338
1.0055513067961004,0.0,1756544186319823476
0.9049961761164904,0.0,1756544186338736258
0.8144911443328464,0.0,1756544186364438247
0.8883573488076273,0.0,1756544186386979946
0.7995216139268646,0.0,1756544186405427669
1.0171634332946402,0.0,1756544186429138474
0.9154470899651762,0.0,1756544186448961941
0.9920552412457785,0.0,1756544186471258854
0.8928497171212006,0.0,1756544186489290982
0.8035647454090806,0.0,1756544186492137396
0.8463902796347114,0.0,1756544186529896829
0.7617512516712402,0.0,1756544186546166820
0.8655697362455297,0.0,1756544186566774388
0.7788269578923472,0.0,1756544186588728097
0.7009442621031126,0.0,1756544186604201634
0.7449595230009298,0.0,1756544186631601784
0.6704635707008368,0.0,1756544186632629675
0.7551415788606718,0.0,1756544186662103892
0.6796274209746046,0.0,1756544186680561402
0.6116513946927516,0.0,1756544186706238349
0.688895105582196,0.0,1756544186729858502
0.6200055950239765,0.0,1756544186739954883
0.710739282110507,0.0,1756544186760629458
0.6396653538994563,0.0,1756544186780431775
0.5756988185095108,0.0,1756544186797858217
0.7113571847247289,0.0,1756544186824484096
0.640221466252256,0.0,1756544186838156681
0.737115462417161,0.0,1756544186862900920
0.6634039161754449,0.0,1756544186876075221
0.5970590419292745,0.0,1756544186899928547
0.7205557348620893,0.0,1756544186925615657
0.6485001613758804,0.0,1756544186936245746
0.6894203542027298,0.0,1756544186961197505
0.6204783187824569,0.0,1756544186978071817
0.5584304869042112,0.0,1756544186999356888
0.6036586176102672,0.0,1756544187027350107
0.5432927558492405,0.0,1756544187040507505
0.5746741636000559,0.0,1756544187062933827
0.5170900932830345,0.0,1756544187082543258
0.46538108395473105,0.0,1756544187100337935
0.5829722224852727,0.0,1756544187122831734
0.5246729280706667,0.0,1756544187146314726
0.5895129093117661,0.0,1756544187164786409
0.5305616183805896,0.0,1756544187185872439
0.6519762706406449,0.0,1756544187209280441
0.5867786435765804,0.0,1756544187224979392
0.5281007792189224,0.0,1756544187246481160
0.750403802539224,0.0,1756544187271858879
0.6753634222853017,0.0,1756544187290509961
0.6078270800567716,0.0,1756544187290595352
0.6473584906383403,0.0,1756544187321779878
0.582620798418574,0.0,1756544187344219396
0.6838437963626446,0.0,1756544187367557673
0.6154594167263802,0.0,1756544187386876876
0.5539134750537421,0.0,1756544187409538209
0.6323044630494349,0.0,1756544187418531582
0.5690740167444914,0.0,1756544187432178178
0.6699397314252955,0.0,1756544187461291844
0.602945758282766,0.0,1756544187477587443
0.5426511824544894,0.0,1756544187508267995
0.5757466147551288,0.0,1756544187528178495
0.518171953279616,0.0,1756544187543374488
0.6486312303706329,0.0,1756544187570594344
0.5837681073335695,0.0,1756544187588537864
0.5253912966002126,0.0,1756544187593430040
0.5950853524744789,0.0,1756544187612729889
0.535576817227031,0.0,1756544187633228801
0.4820191355043279,0.0,1756544187655830552
0.5279816852627673,0.0,1756544187684687959
0.4751835167364906,0.0,1756544187706938774
0.567795166130981,0.0,1756544187728632359
0.5110156495178829,0.0,1756544187742418331
0.5341942624265037,0.0,1756544187767825566
0.48077483618385336,0.0,1756544187786867200
0.43269735256546804,0.0,1756544187817669393
3.05219463236904,0.0,1756544187822037047
2.746972115977898,0.0,1756544187844025401
2.5645680912946975,0.0,1756544187867763194
2.308111282165228,0.0,1756544187876708073
2.077300153948705,0.0,1756544187892647155
1.995215169119792,0.0,1756544187921259763
1.795691469122691,0.0,1756544187946637344
1.8120866059347995,0.0,1756544187963125380
1.6308779453413196,0.0,1756544187982962037
1.4677901508071876,0.0,1756544188005545435
1.4689401349952935,0.0,1756544188030344499
1.3220461214957642,0.0,1756544188047615467
1.3665663208140606,0.0,1756544188071883678
1.2299096887326546,0.0,1756544188088214646
1.106910254410856,0.0,1756544188111776750
1.0901551203302944,0.0,1756544188133331708
0.981139608297265,0.0,1756544188134120087
1.0152197400142213,0.0,1756544188178964812
0.9136977660127992,0.0,1756544188182685914
0.8223279894115193,0.0,1756544188194586261
0.9619055045210796,0.0,1756544188218017401
0.8657149540689717,0.0,1756544188237877929
0.9449477445021423,0.0,1756544188263666226
0.8504496941583721,0.0,1756544188291961841
0.765404724742535,0.0,1756544188315087356
1.1178549031467284,0.0,1756544188319182532
1.0060694128320555,0.0,1756544188334410767
0.9912757331194362,0.0,1756544188362600080
0.8921481598074926,0.0,1756544188379501790
0.9424725135601829,0.0,1756544188404280135
0.8481343209723133,0.0,1756544188428857436
0.763320888875082,0.0,1756544188445336376
0.8166966304663246,0.0,1756544188470775148
0.7350269674196921,0.0,1756544188484166754
0.6615242706777229,0.0,1756544188507592353
0.7914206878768835,0.0,1756544188528112498
0.7122786190891951,0.0,1756544188547961328
0.7808798623899812,0.0,1756544188570736047
0.702791876150983,0.0,1756544188572703195
0.6325071904672004,0.0,1756544188595633103
0.770472178685577,0.0,1756544188616813084
0.6934249608170193,0.0,1756544188630090688
0.6240824647353174,0.0,1756544188650437034
0.692481307968496,0.0,1756544188675770006
0.6232293121649117,0.0,1756544188694308272
0.699067525467414,0.0,1756544188718156883
0.6291607729206726,0.0,1756544188736734692
0.5662446956286054,0.0,1756544188761137994
0.7020559802709494,0.0,1756544188786178451
0.6318503822438545,0.0,1756544188805342154
0.754746978924271,0.0,1756544188831781976
0.6792722810318439,0.0,1756544188846341425
0.8551905019029872,0.0,1756544188870026964
0.7696714517126885,0.0,1756544188892257119
0.6927043065414197,0.0,1756544188894621007
0.7929225977759857,0.0,1756544188915187136
0.7136269072961138,0.0,1756544188939507004
0.8464250466899682,0.0,1756544188960640860
0.7617809039807257,0.0,1756544188976008872
0.6856028135826532,0.0,1756544188994826509
0.767899191497219,0.0,1756544189018445951
0.6911092723474971,0.0,1756544189035978508
0.7576499392789189,0.0,1756544189062652247
0.6818825652259567,0.0,1756544189080070864
0.6136943087033611,0.0,1756544189107358932
0.7794588893960737,0.0,1756544189126185344
0.7015103271792756,0.0,1756544189148663090
0.8269617684005062,0.0,1756544189167453590
0.7442655915604556,0.0,1756544189188037693
0.66983903240441,0.0,1756544189208577534
0.7708806011041948,0.0,1756544189231413852
0.6937925409937753,0.0,1756544189248025334
0.7053160583768279,0.0,1756544189271113561
0.6347844525391451,0.0,1756544189272197523
0.5713060072852306,0.0,1756544189295730926
0.6904030464869932,0.0,1756544189320550010
0.621362741838294,0.0,1756544189334636786
0.6928798188397433,0.0,1756544189358810645
0.6235918369557689,0.0,1756544189384055121
0.561232653260192,0.0,1756544189408784733
0.5570156879279864,0.0,1756544189438443883
0.5013141191351878,0.0,1756544189440293351
0.6239454616625503,0.0,1756544189473870514
0.5615509154962952,0.0,1756544189477340946
0.5053958239466657,0.0,1756544189493756691
0.6204053963114359,0.0,1756544189516909167
0.5583633981780417,0.0,1756544189543907569
0.701930300589239,0.0,1756544189567642627
0.6317372705303151,0.0,1756544189587102640
0.5685635434772837,0.0,1756544189604818755
0.6605574935594059,0.0,1756544189628771623
0.5945017442034652,0.0,1756544189647728247
0.6296403767861504,0.0,1756544189673948538
0.5666763391075353,0.0,1756544189675338584
0.5100087051967819,0.0,1756544189699910777
0.6605468810363704,0.0,1756544189718842314
0.5944898704871153,0.0,1756544189742081207
0.659405634536376,0.0,1756544189762214260
0.5934650710827384,0.0,1756544189778093384
0.5341185639744646,0.0,1756544189804738735
0.6558960866484834,0.0,1756544189825649541
0.5903064779836351,0.0,1756544189843982318
0.6685093393588024,0.0,1756544189865904327
0.6016584054229221,0.0,1756544189883973109
0.5408424694856458,0.0,1756544189911540001
0.6363043354365886,0.0,1756544189935024614
0.5726736780553413,0.0,1756544189953536419
0.6063066724364663,0.0,1756544189989886723
0.5456760051928197,0.0,1756544190012790123
0.6450732492549134,0.0,1756544190019776005
0.5805659243294221,0.0,1756544190032448944
0.6368364776341227,0.0,1756544190061578829
0.5731528298707104,0.0,1756544190079036119
0.5158375468836394,0.0,1756544190095143794
0.5945508952703319,0.0,1756544190122447648
0.5350958057432987,0.0,1756544190144465095
0.6136638706316303,0.0,1756544190166482970
0.5522974835684673,0.0,1756544190190177737
0.49706773521162056,0.0,1756544190207598647
0.5439115485704716,0.0,1756544190231506728
0.4895203937134245,0.0,1756544190232687063
0.44056663490478565,0.0,1756544190256445197
0.6204079915494363,0.0,1756544190274967063
0.5583671923944926,0.0,1756544190295570456
0.6027229172551753,0.0,1756544190325247011
0.5424506255296578,0.0,1756544190346377465
0.6876199509670873,0.0,1756544190370420877
0.6188579558703786,0.0,1756544190381526197
0.5569659262151008,0.0,1756544190406825049
0.6417453172591239,0.0,1756544190434255883
0.5775707855332115,0.0,1756544190445010291
0.667464254958159,0.0,1756544190469454740
0.6007178294623431,0.0,1756544190486833580
0.5406460465161088,0.0,1756544190508420557
0.6832720052010474,0.0,1756544190532271907
0.6149448046809426,0.0,1756544190533582364
0.6746853256846883,0.0,1756544190562117150
0.6072167931162195,0.0,1756544190575512661
0.5464951138045975,0.0,1756544190598197149
0.6866503371878063,0.0,1756544190620951719
0.6179853034690257,0.0,1756544190634907055
0.7107308046846038,0.0,1756544190658828231
0.6396577242161434,0.0,1756544190672952794
0.5756919517945291,0.0,1756544190698982762
0.6395385418906788,0.0,1756544190717355443
0.5755816247890696,0.0,1756544190739715191
0.7036905079726905,0.0,1756544190759510446
0.6333214571754214,0.0,1756544190783564148
0.5699893114578793,0.0,1756544190801745627
0.6524725090915033,0.0,1756544190825349144
0.587225258182353,0.0,1756544190847591556
0.7448141194606281,0.0,1756544190867507417
0.6703327075145653,0.0,1756544190888767939
0.6032994367631088,0.0,1756544190907036970
0.6568290735817289,0.0,1756544190933951477
0.5911461662235561,0.0,1756544190950900935
0.5320315496012005,0.0,1756544190957866236
0.6978269231122185,0.0,1756544190979828780
0.6280442308009967,0.0,1756544190993574996
0.7382823250904231,0.0,1756544191015870083
0.6644540925813809,0.0,1756544191035660560
0.7976423847340787,0.0,1756544191061374019
0.717877098091133,0.0,1756544191081711024
0.6460893882820197,0.0,1756544191100459568
0.7420513029118463,0.0,1756544191120356764
0.6678461726206617,0.0,1756544191137817545
0.6603102021665098,0.0,1756544191160933532
0.5942766551817752,0.0,1756544191181389974
0.5348489896635977,0.0,1756544191204803880
0.6872126878522695,0.0,1756544191221832414
0.6184900724557989,0.0,1756544191243214323
0.6880893032021659,0.0,1756544191268994713
0.6192803728819493,0.0,1756544191282293856
0.5573523355937543,0.0,1756544191304563228
0.6001103623563492,0.0,1756544191322638580
0.5400993261207143,0.0,1756544191341017939
0.5090246598689411,0.0,1756544191369034244
0.458122193882047,0.0,1756544191386598692
0.4123099744938423,0.0,1756544191412557289
0.40215038349740273,0.0,1756544191419502763
0.3619304915579945,0.0,1756544191442331201
0.35871295211050225,0.0,1756544191461968416
0.32284165689945205,0.0,1756544191483481803
0.29055749120950686,0.0,1756544191508558285
0.3334141019172681,0.0,1756544191532604094
0.3000726917255413,0.0,1756544191540139657
0.39570992521593823,0.0,1756544191569834375
0.35613893269434443,0.0,1756544191586288424
0.32052503942491,0.0,1756544191610009786
0.37723451632969085,0.0,1756544191636757453
0.33951106469672176,0.0,1756544191638066516
0.5355043621269451,0.0,1756544191656088242
0.48195392591425057,0.0,1756544191674715775
0.43375853332282555,0.0,1756544191696181382
0.592949776466104,0.0,1756544191721652914
0.5336547988194936,0.0,1756544191737367396
0.6254498315711849,0.0,1756544191777001831
0.5629048484140665,0.0,1756544191778037175
0.5066143635726599,0.0,1756544191802628052
0.6207241221868129,0.0,1756544191825281868
0.5586517099681316,0.0,1756544191845396947
0.7079753118817533,0.0,1756544191872650216
0.637174386290455,0.0,1756544191890359439
0.5734569476614095,0.0,1756544191907150973
0.7578309096427585,0.0,1756544191929330122
0.6820478186784826,0.0,1756544191948093659
0.7076088063545072,0.0,1756544191974062525
0.6368479257190565,0.0,1756544191975163418
0.5731511907876387,0.0,1756544191999891432
0.8057670375141754,0.0,1756544192019207747
0.7251903337627579,0.0,1756544192039945015
0.8275455488076662,0.0,1756544192063182580
0.7447909939268996,0.0,1756544192081645704
0.6703118945342097,0.0,1756544192104710382
0.7582534102381301,0.0,1756544192125251793
0.6824280692143171,0.0,1756544192141800322
0.8042709041250282,0.0,1756544192161006910
0.7238438137125254,0.0,1756544192181678497
0.6514594323412729,0.0,1756544192206393330
0.7268792178612459,0.0,1756544192231807149
0.6541817141795065,0.0,1756544192248712399
0.7892165538802945,0.0,1756544192269418879
0.7102948984922651,0.0,1756544192286822566
0.7122538215346232,0.0,1756544192314470426
0.6410284393811609,0.0,1756544192315906351
0.5769237517909428,0.0,1756544192334622140
0.7282933626592678,0.0,1756544192357899023
0.655464026393341,0.0,1756544192376986483
0.5899176237540069,0.0,1756544192398225467
0.6238290404283173,0.0,1756544192423160422
0.5614405500064422,0.0,1756544192444545540
0.996433629255453,0.0,1756544192465403926
0.8967902663299077,0.0,1756544192485854539
0.8071112396969169,0.0,1756544192505871473
0.8586807182304828,0.0,1756544192528552847
0.7728126464074345,0.0,1756544192549254608
0.8578064320072967,0.0,1756544192555442384
0.7720235677838369,0.0,1756544192573466467
0.6948212110054531,0.0,1756544192593446921
0.8928235191929371,0.0,1756544192624110125
0.8035411672736434,0.0,1756544192634643891
0.8643391478493602,0.0,1756544192663007673
0.7779052330644242,0.0,1756544192678496188
0.7001147097579817,0.0,1756544192703256682
0.7587864266179603,0.0,1756544192729187214
0.6829077839561642,0.0,1756544192745165369
0.760839210850383,0.0,1756544192758974448
0.6847552897653447,0.0,1756544192778650614
0.6162797607888103,0.0,1756544192800822055
0.7040141775444219,0.0,1756544192821517999
0.6336110098386327,0.0,1756544192847629402
0.7252262477628777,0.0,1756544192869414410
0.6527036229865899,0.0,1756544192885540253
0.5874332606879309,0.0,1756544192907140824
0.6725292768348725,0.0,1756544192929098706
0.6052763491513853,0.0,1756544192947343573
0.6770489457283767,0.0,1756544192970787640
0.609344051155539,0.0,1756544192987718590
0.5484096460399851,0.0,1756544193011532269
0.647079007602386,0.0,1756544193017063431
0.5823711068421474,0.0,1756544193034873162
0.6972629877103819,0.0,1756544193059187223
0.6275366889393437,0.0,1756544193078709338
0.5647830200454094,0.0,1756544193099280756
0.6021620532664851,0.0,1756544193133786959
0.5419395557636076,0.0,1756544193146975999
0.6476753799875176,0.0,1756544193170131897
0.5829078419887658,0.0,1756544193188518141
0.5246170577898892,0.0,1756544193211857665
0.4721553520109003,0.0,1756544193212712614
0.5709575499325111,0.0,1756544193235910447
0.6333669409270897,0.0,1756544193258467727
0.5700302468343807,0.0,1756544193276158729
0.5130272221509427,0.0,1756544193306462808
0.6698806500811372,0.0,1756544193326376960
0.6028915056132834,0.0,1756544193343031803
0.6632279210873678,0.0,1756544193366721917
0.596905128978631,0.0,1756544193383924078
0.5372146160807679,0.0,1756544193409072496
0.6036205925381433,0.0,1756544193434722073
0.5432475166634334,0.0,1756544193451248570
0.6236318118454792,0.0,1756544193475114732
0.5612686306609314,0.0,1756544193480186472
0.5051417675948382,0.0,1756544193495161413
0.6245359893606968,0.0,1756544193520845271
0.5620823904246272,0.0,1756544193539287670
0.681372196300309,0.0,1756544193561359910
0.6132349766702782,0.0,1756544193582263735
0.5519114790032503,0.0,1756544193603681224
0.6030635138371212,0.0,1756544193628090451
0.5427434760608649,0.0,1756544193652399950
0.6942074604862494,0.0,1756544193667141622
0.6247867144376245,0.0,1756544193686491467
0.5623080429938621,0.0,1756544193709387206
0.5539326090099561,0.0,1756544193741037336
0.4985393481089605,0.0,1756544193742292296
0.7299923358276272,0.0,1756544193755577447
0.6569931022448645,0.0,1756544193772913680
0.5912937920203781,0.0,1756544193795159981
0.6959019564455718,0.0,1756544193820285605
0.6263117608010147,0.0,1756544193841091107
0.7250058961160779,0.0,1756544193866675752
0.6525053065044701,0.0,1756544193884176693
0.9549488642424204,0.0,1756544193914378865
0.8594514505132245,0.0,1756544193938954281
0.773506305461902,0.0,1756544193940671906
0.845820591074288,0.0,1756544193963365488
0.7612385319668592,0.0,1756544193975026858
0.6851146787701733,0.0,1756544193996520237
0.8063528557045907,0.0,1756544194018803519
0.7257175701341316,0.0,1756544194041743618
0.7448495519214297,0.0,1756544194068010733
0.6703645967292867,0.0,1756544194084172083
0.603328137056358,0.0,1756544194108242049
0.6192079152028539,0.0,1756544194135783796
0.5572871236825685,0.0,1756544194137102469
0.5649087729055824,0.0,1756544194166549850
0.5084178956150242,0.0,1756544194177379079
0.4575761060535217,0.0,1756544194204136441
0.5486557196979401,0.0,1756544194230257337
0.4937901477281461,0.0,1756544194245326312
0.5931506861373605,0.0,1756544194270908518
0.5338356175236245,0.0,1756544194295641456
0.4804520557712621,0.0,1756544194296556650
0.49264800530628033,0.0,1756544194320166637
0.44337678358006816,0.0,1756544194342773217
0.3990391052220614,0.0,1756544194357656979
0.4221453817164545,0.0,1756544194394094507
0.37991773669274503,0.0,1756544194409473960
0.47539163800814244,0.0,1756544194425384404
0.4278524742073282,0.0,1756544194447418512
0.5072964253122225,0.0,1756544194466983815
0.45656678278100027,0.0,1756544194492240961
0.4109101045029003,0.0,1756544194502127831
0.4886881513024899,0.0,1756544194521704008
0.4398193361722409,0.0,1756544194539168468
0.3958374025550168,0.0,1756544194565149204
0.5139071143222544,0.0,1756544194587075342
0.462516402890029,0.0,1756544194610378003
1.0134072006400192,0.0,1756544194613577222
0.9120664805760174,0.0,1756544194630505194
0.9801847581114363,0.0,1756544194655589229
0.8821615581103681,0.0,1756544194676238203
0.7939454022993313,0.0,1756544194692169666
0.8828891999217455,0.0,1756544194722052487
0.7946002799295709,0.0,1756544194734201142
0.7151402519366139,0.0,1756544194755282806
0.8626168498037553,0.0,1756544194778663564
0.7763551648233797,0.0,1756544194798590728
0.8438964219671747,0.0,1756544194825536450
0.7595067797704573,0.0,1756544194845429438
0.754981756661533,0.0,1756544194867373924
0.6794835809953798,0.0,1756544194885442829
0.6115352228958418,0.0,1756544194907545124
0.6607725151347702,0.0,1756544194932022610
0.5946952636212932,0.0,1756544194953437507
0.6755460132838268,0.0,1756544194958130804
0.6079914119554441,0.0,1756544194977880044
0.5471922707598997,0.0,1756544194999234431
0.5676787320761689,0.0,1756544195021119844
0.510910858868552,0.0,1756544195040367308
0.5137701038712589,0.0,1756544195064903719
0.46238900845941455,0.0,1756544195088317677
0.4161501076134731,0.0,1756544195104980412
0.4275334737372782,0.0,1756544195131541790
0.38478012636355036,0.0,1756544195148284273
0.442086611431292,0.0,1756544195155533613
0.3978779502881628,0.0,1756544195174822433
0.3580901552593465,0.0,1756544195193619943
0.3855936662950046,0.0,1756544195218345677
0.3470266899057307,0.0,1756544195237228883
0.38936488575214134,0.0,1756544195258964775
0.35042671182563756,0.0,1756544195283823136
0.3153840406430738,0.0,1756544195300608706
0.37864883752359046,0.0,1756544195320999376
0.34078395377123144,0.0,1756544195340520185
0.34433333847221553,0.0,1756544195363632648
0.30989843414767543,0.0,1756544195385755841
0.2789085907329079,0.0,1756544195408838749
0.3106246528149101,0.0,1756544195432063369
0.2795621875334191,0.0,1756544195433362288
0.2814539876838725,0.0,1756544195464525791
0.25330858891548524,0.0,1756544195475343084
0.22797773002393673,0.0,1756544195495277237
0.23974285287589842,0.0,1756544195517206774
0.21576675419422295,0.0,1756544195541640965
0.19419007877480066,0.0,1756544195562790913
0.16981218367791928,0.0,1756544195586334796
0.15283096531012735,0.0,1756544195607907073
0.13977190249902502,0.0,1756544195630325376
0.12578848794807462,0.0,1756544195650729508
0.09589469302600032,0.0,1756544195672496885
0.08630522372340028,0.0,1756544195674010737
0.07767470135106026,0.0,1756544195692412302
0.03865574430777517,0.0,1756544195717014876
0.03479016987699766,0.0,1756544195733657859
-0.05972680456655839,0.0,1756544195759546399
-0.05375412410990255,0.0,1756544195772887766
-0.0483787116989123,0.0,1756544195797961639
-0.1502296478330972,0.0,1756544195828696524
-0.13520668304978747,0.0,1756544195838157468
-0.3002428046129636,0.0,1756544195860546528
-0.27021852415166725,0.0,1756544195884865178
-0.24319667173650053,0.0,1756544195903832791
-0.28244400512820705,0.0,1756544195927884524
-0.2541996046153864,0.0,1756544195944279334
-0.339292539004928,0.0,1756544195971574438
-0.3053685544185373,0.0,1756544195996350771
-0.2748316989766836,0.0,1756544195997204100
-0.37635627437197505,0.0,1756544196017339033
-0.3387224043533793,0.0,1756544196043011983
-0.4219001938031054,0.0,1756544196064158752
-0.37971017442279487,0.0,1756544196082499948
-0.3417391569805154,0.0,1756544196105837942
-0.44384052483764447,0.0,1756544196131186714
-0.39945647235388004,0.0,1756544196146803674
-0.5852166946985945,0.0,1756544196171488058
-0.526695025228735,0.0,1756544196188163468
-0.4740255227058615,0.0,1756544196190354202
-0.5557547074621993,0.0,1756544196215309847
-0.5001792367159794,0.0,1756544196233552170
-0.4501613130443815,0.0,1756544196255118805
-0.5081381285187271,0.0,1756544196274135836
-0.4573243156668544,0.0,1756544196297953705
-0.6860633948704822,0.0,1756544196323131683
-0.6174587234079026,0.0,1756544196344442195
-0.5557128510671124,0.0,1756544196361019693
-0.6809454965356353,0.0,1756544196389136970
-0.6128509468820718,0.0,1756544196402817949
-0.6833307402779281,0.0,1756544196424693808
-0.6149976662501353,0.0,1756544196455330855
-0.8494023399101117,0.0,1756544196469352059
-0.7644621059191006,0.0,1756544196492584887
-0.6880158953271905,0.0,1756544196509545650
-0.7500547332728368,0.0,1756544196531995942
-0.6750492599455531,0.0,1756544196533369291
-0.962710821390534,0.0,1756544196560586702
-0.8664397392514807,0.0,1756544196573634163
-0.7797957653263327,0.0,1756544196594922764
-0.9504345276550994,0.0,1756544196617126115
-0.8553964995346071,0.0,1756544196640732220
-1.0388607913787054,0.0,1756544196668164728
-0.9349747122408348,0.0,1756544196688610082
-0.8414772410167514,0.0,1756544196706087629
-1.139867781127156,0.0,1756544196732852325
-1.0258810030144405,0.0,1756544196734047599
-1.1947933321968205,0.0,1756544196755285508
-1.0753139989771385,0.0,1756544196773645658
-0.9677825990794247,0.0,1756544196797102524
-1.2125737957970477,0.0,1756544196816981908
-1.091316416217343,0.0,1756544196836142081
-1.3001978436338208,0.0,1756544196862092217
-1.1701780592704387,0.0,1756544196886706103
-1.0531602533433948,0.0,1756544196904341640
-1.319527735201223,0.0,1756544196930352608
-1.1875749616811007,0.0,1756544196943197837
-1.3252319580385286,0.0,1756544196967193057
-1.1927087622346757,0.0,1756544196986973671
-1.0734378860112082,0.0,1756544197017402176
-5.303953036335529,0.0,1756544197020931307
-4.77356191149011,0.0,1756544197044962333
-4.396659135149347,0.0,1756544197067439083
-3.956993221634413,0.0,1756544197081773941
-3.561301413019664,0.0,1756544197117811001
-3.302547114109285,0.0,1756544197130157291
-2.9722903832528447,0.0,1756544197151102923
-2.710042235455897,0.0,1756544197173329936
-2.4390380119103074,0.0,1756544197174729000
-2.1951342107192766,0.0,1756544197196891852
-1.9938501710863146,0.0,1756544197222109184
-1.7944651539776832,0.0,1756544197240575719
-1.6041703643348457,0.0,1756544197264070747
-1.4437533279013612,0.0,1756544197288627907
-1.2995140079910539,0.0,1756544197316588262
-1.1695626071919485,0.0,1756544197317783018
-1.0323599629972142,0.0,1756544197338661438
-0.8714456282602758,0.0,1756544197357957757
-0.7843010654342483,0.0,1756544197390962901
-0.7058709588908234,0.0,1756544197400762560
-0.6004266977501516,0.0,1756544197425956676
-0.5403879800958116,0.0,1756544197446960045
-0.383902907174028,0.0,1756544197473375578
-0.3455126164566252,0.0,1756544197492503841
-0.31096135481096265,0.0,1756544197496994901
-0.13838781199114716,0.0,1756544197527810005
-0.12454903079203244,0.0,1756544197552985455
0.1358798052449298,0.0,1756544197557567845
0.12229182472043681,0.0,1756544197580328549
0.11006264224839314,0.0,1756544197600867609
0.20624354544109408,0.0,1756544197629964351
0.18561889352549124,0.0,1756544197645793268
0.31798119438377925,0.0,1756544197666081015
0.28618307494540135,0.0,1756544197687915552
0.2575647674508612,0.0,1756544197709119839
0.2318082907057751,0.0,1756544197714711179
0.3225492879261871,0.0,1756544197754033022
0.5372339257375314,0.0,1756544197771173912
0.48351053316377823,0.0,1756544197773266963
0.43515947984740044,0.0,1756544197794039385
0.4943132636121718,0.0,1756544197814378154
0.44488193725095465,0.0,1756544197834227593
0.608734497704667,0.0,1756544197860457854
0.5478610479342003,0.0,1756544197876023148
0.4930749431407803,0.0,1756544197900415545
0.5703409745849912,0.0,1756544197924637823
0.5133068771264921,0.0,1756544197940496397
0.6378883955888908,0.0,1756544197965961930
0.5740995560300017,0.0,1756544197987416528
0.5166896004270016,0.0,1756544198002681879
0.5757903505665517,0.0,1756544198027686320
0.5182113155098965,0.0,1756544198043154493
0.6263960678037198,0.0,1756544198066618367
0.5637564610233479,0.0,1756544198084032552
0.5073807855340491,0.0,1756544198106277967
0.6208650375993197,0.0,1756544198126686420
0.5587785338393877,0.0,1756544198149426044
0.634419425605783,0.0,1756544198172046232
0.5709774830452047,0.0,1756544198173467113
0.5138797347406843,0.0,1756544198192213062
0.6082741645476761,0.0,1756544198217141784
0.5474459569364348,0.0,1756544198240233607
0.6634570070546539,0.0,1756544198258623378
0.5971113063491885,0.0,1756544198277332870
0.5373985255533285,0.0,1756544198301094744
0.6716266387356616,0.0,1756544198319894575
0.6044639748620955,0.0,1756544198341628890
0.6819818548787622,0.0,1756544198363597540
0.613783669390886,0.0,1756544198383326700
0.5524053024517974,0.0,1756544198408859752
0.6538683240821055,0.0,1756544198432256455
0.5884747402514872,0.0,1756544198455338560
0.5296272662263385,0.0,1756544198456658278
0.6053609410929923,0.0,1756544198477216297
0.5448248469836932,0.0,1756544198501740905
0.59355252304446,0.0,1756544198532403044
0.5341972707400141,0.0,1756544198550793731
1.0327082745124632,0.0,1756544198570436062
0.9294374470612169,0.0,1756544198593368180
1.0133194605387825,0.0,1756544198601829012
0.9119875144849043,0.0,1756544198620114927
0.8207887630364139,0.0,1756544198638844894
0.8284525176329608,0.0,1756544198664021300
0.7456072658696647,0.0,1756544198688548258
0.6710452129456007,0.0,1756544198712485458
0.6988763213929842,0.0,1756544198731545292
0.6289886892536858,0.0,1756544198747345654
0.6033715959696495,0.0,1756544198776998128
0.5430344363726846,0.0,1756544198778442004
0.4887272793895017,0.0,1756544198803210561
0.5574682385586214,0.0,1756544198824553177
0.5017214147027592,0.0,1756544198839910539
0.5225115320136875,0.0,1756544198867140133
0.47026037881231875,0.0,1756544198886441309
0.42323434093108686,0.0,1756544198909245888
0.5399190135444961,0.0,1756544198930608166
0.4859217517113101,0.0,1756544198953846378
0.7417500633447032,0.0,1756544198956409208
0.6675750570102329,0.0,1756544198972373169
0.6008175513092097,0.0,1756544198995813803
0.696421994117583,0.0,1756544199024764336
0.6267797947058247,0.0,1756544199038588526
0.629569382373662,0.0,1756544199059955426
0.5666122496514845,0.0,1756544199078961337
0.509951024686336,0.0,1756544199102418519
0.5571936390255621,0.0,1756544199121743287
0.5014742751230059,0.0,1756544199143637371
0.6014784777858783,0.0,1756544199170293503
0.5413306300072904,0.0,1756544199185010254
0.4871975670065614,0.0,1756544199211488390
0.5671964907061313,0.0,1756544199217511969
0.5104768416355182,0.0,1756544199248107937
0.5077511645584483,0.0,1756544199275232119
0.45697604810260345,0.0,1756544199276321102
0.4112784432923431,0.0,1756544199300688718
0.4329123418890637,0.0,1756544199323286484
0.38962110770015734,0.0,1756544199338790454
0.4632518703778249,0.0,1756544199368805431
0.416922872589994,0.0,1756544199400673586
0.3752305853309946,0.0,1756544199406888547
0.4331322625465256,0.0,1756544199421200496
0.38981903629187303,0.0,1756544199441210223
0.4179174273363046,0.0,1756544199466875061
0.37612568460267415,0.0,1756544199485709593
0.33838864159959714,0.0,1756544199517565394
1.9452586228256667,0.0,1756544199521056778
1.750732593817711,0.0,1756544199541350460
1.6255494697039292,0.0,1756544199560810232
1.4629945227335364,0.0,1756544199577690001
1.3166950704601827,0.0,1756544199598148780
1.2705140256403753,0.0,1756544199627110865
1.1434626230763378,0.0,1756544199640124965
1.0615709590299762,0.0,1756544199673219236
0.9554138631269786,0.0,1756544199688612669
0.8598724768142808,0.0,1756544199707064429
0.8209236333967236,0.0,1756544199736082469
0.7961025569086125,0.0,1756544199761994404
0.7164923012177513,0.0,1756544199782574622
0.6448430710959762,0.0,1756544199805660393
0.6439387268972288,0.0,1756544199833429078
0.5795448542075059,0.0,1756544199844692668
0.5317007645438395,0.0,1756544199872871926
0.4785306880894556,0.0,1756544199891027072
0.45464945316278477,0.0,1756544199897904838
0.40918265571139945,0.0,1756544199918346844
0.3682643901402595,0.0,1756544199937304319
0.3839407084608917,0.0,1756544199962142699
0.3455462130756698,0.0,1756544199986936429
0.3109915917681028,0.0,1756544200003105531
0.34791938766359,0.0,1756544200025635239
0.313127448897231,0.0,1756544200044343088
0.3414070675215767,0.0,1756544200065654028
0.30726636076941904,0.0,1756544200088149429
0.2765397246924772,0.0,1756544200117113174
0.28678170101536654,0.0,1756544200122376505
0.25809979016567386,0.0,1756544200161940321
0.23202490499329814,0.0,1756544200178897065
0.20882241449396832,0.0,1756544200178966144
0.1879401730445715,0.0,1756544200201024869
0.17468823387280194,0.0,1756544200225624067
0.15721941048552174,0.0,1756544200242012680
0.1424218369268797,0.0,1756544200264774141
0.12817965323419175,0.0,1756544200287240202
0.11536168791077259,0.0,1756544200307291317
0.11530452319403509,0.0,1756544200336618820
0.10377407087463159,0.0,1756544200337983347
0.09548619721209581,0.0,1756544200357829314
0.08593757749088624,0.0,1756544200372609085
0.07734381974179762,0.0,1756544200398509390
0.045935594453325276,0.0,1756544200423663515
0.04133668770003276,0.0,1756544200448983363
-0.01289816863180119,0.0,1756544200465677867
-0.01160835176862107,0.0,1756544200490026932
-0.012141321720142316,0.0,1756544200519200654
-0.03670632631757563,0.0,1756544200549245138
-0.10718280819708959,0.0,1756544200566850366
-0.09646452737738063,0.0,1756544200587223054
-0.08681807463964257,0.0,1756544200610339287
-0.09734613290035664,0.0,1756544200632136426
-0.08761151961032097,0.0,1756544200633608342
-0.15434109184988198,0.0,1756544200656555723
-0.1389069826648938,0.0,1756544200678116190
-0.1250169951376319,0.0,1756544200701094423
-0.2419650962867248,0.0,1756544200722015901
-0.21776858665805232,0.0,1756544200743820334
-0.35945859200401986,0.0,1756544200771245811
-0.32351273280361786,0.0,1756544200786748777
-0.29116145952325606,0.0,1756544200810438347
-1.1310865169660613,0.0,1756544200814078927
-1.0179795884183411,0.0,1756544200841793578
-0.9161816295765071,0.0,1756544200859924487
-1.1252140947830482,0.0,1756544200887009669
-1.0126926853047435,0.0,1756544200905664299
-1.1415260551937985,0.0,1756544200932678061
-1.0273734496744187,0.0,1756544200942572110
-1.329131145093207,0.0,1756544200970174127
-1.1962180305838863,0.0,1756544200988248411
-1.0765962275254977,0.0,1756544201014986648
-8.753843832240864,0.0,1756544201017537656
-7.878459449016778,0.0,1756544201034734591
-7.356818813606208,0.0,1756544201061585279
-6.621139068254273,0.0,1756544201078317420
-5.959025161428846,0.0,1756544201103847571
-6.209528213527083,0.0,1756544201124195436
-5.588575392174374,0.0,1756544201138741076
-5.5376408704184925,0.0,1756544201163215899
-4.983876783376643,0.0,1756544201179546669
-4.485489105038979,0.0,1756544201203241699
-4.684644422707381,0.0,1756544201228382923
-4.216181332651631,0.0,1756544201243365195
-4.198038959447334,0.0,1756544201264045960
-3.778235063502601,0.0,1756544201284938091
-3.464153755453647,0.0,1756544201318360542
-3.1177383799082823,0.0,1756544201320060029
-2.805964541917454,0.0,1756544201352857802
-2.5253680877257088,0.0,1756544201353928759
-2.972164955456682,0.0,1756544201376301848
-2.674948459911014,0.0,1756544201394119753
-2.854215715102331,0.0,1756544201421114776
-2.568796405106243,0.0,1756544201447227353
-2.4791121225989365,0.0,1756544201474999209
-2.231200910339043,0.0,1756544201476318309
-2.008080819305139,0.0,1756544201494755465
-2.132731351396519,0.0,1756544201526168286
-1.9194602552343014,0.0,1756544201545651347
-2.014712886882556,0.0,1756544201565158314
-1.8132419813612033,0.0,1756544201585130005
-1.631917783225083,0.0,1756544201609880084
-1.8471992157910075,0.0,1756544201626635290
-1.6624792942119069,0.0,1756544201645699303
-1.6597407500168777,0.0,1756544201670534697
-1.49376667501519,0.0,1756544201689754304
-1.344390007513671,0.0,1756544201695818013
-1.322519641910321,0.0,1756544201724260474
-1.1902670524304857,0.0,1756544201746591047
-1.3501640160502466,0.0,1756544201764616735
-1.215147614445222,0.0,1756544201786333313
-1.0936328530006998,0.0,1756544201810461138
-1.1813547443618855,0.0,1756544201814557858
-1.063219269925697,0.0,1756544201834628739
-1.0402497944151912,0.0,1756544201859904745
-0.936224814973672,0.0,1756544201872024162
-0.8426023334763049,0.0,1756544201896546127
-0.8033321908908192,0.0,1756544201919935511
-0.7229989718017373,0.0,1756544201933350805
-0.6476207797023738,0.0,1756544201954761926
-0.5828587017321364,0.0,1756544201973346443
-0.5245728315589228,0.0,1756544201995512949
-0.43624536272989406,0.0,1756544202020424605
-0.39262218359562606,0.0,1756544202037321332
-0.3007554437778696,0.0,1756544202056368911
-0.27067989940008264,0.0,1756544202078934842
-0.24361173355515708,0.0,1756544202103862622
-0.1753151174070598,0.0,1756544202130611794
-0.15778360566635383,0.0,1756544202148365914
-0.04206568099055033,0.0,1756544202168165597
-0.0378591128914953,0.0,1756544202188594943
-0.03407244536070529,0.0,1756544202210776384
0.13494116462675917,0.0,1756544202229984336
0.12144704816408326,0.0,1756544202232283596
0.2961955123460826,0.0,1756544202252905982
0.26657596111147436,0.0,1756544202270865229
0.23991798516617047,0.0,1756544202294048738
0.37133996948230075,0.0,1756544202317709848
0.3342059725340707,0.0,1756544202333846593
0.41406945956542074,0.0,1756544202357386769
0.37266288410479786,0.0,1756544202388106301
0.33539659569431807,0.0,1756544202399759981
0.47533365607510136,0.0,1756544202426431347
0.4278002904675912,0.0,1756544202442145573
0.46778523937634997,0.0,1756544202471365578
0.421006715438715,0.0,1756544202492261757
0.3789060438948435,0.0,1756544202495248792
0.5957328864828761,0.0,1756544202533624183
0.5361603955295179,0.0,1756544202548478037
0.6320084026621304,0.0,1756544202582708364
0.5688075623959175,0.0,1756544202611472201
0.5119268061563257,0.0,1756544202611507533
0.7077974998520402,0.0,1756544202641352705
0.8291551693622292,0.0,1756544202662889160
0.7462396524260063,0.0,1756544202685828450
0.6716156871834057,0.0,1756544202699150250
0.7648962964068737,0.0,1756544202724189051
0.6884066667661863,0.0,1756544202739058344
0.6195660000895677,0.0,1756544202761974910
0.7298407812542039,0.0,1756544202787971872
0.6568567031287835,0.0,1756544202801968956
0.6799246796435816,0.0,1756544202823504806
0.6119315741979824,0.0,1756544202851379183
0.7079029557066352,0.0,1756544202863718226
0.6371126601359717,0.0,1756544202885260884
0.5734013941223746,0.0,1756544202900987752
0.7117810849744464,0.0,1756544202931897975
0.6406029764770017,0.0,1756544202940712816
0.7174711853969389,0.0,1756544202968180049
0.645724066857245,0.0,1756544202983353312
0.5811516601715205,0.0,1756544203002355452
0.6254573539223128,0.0,1756544203025178406
0.5629116185300815,0.0,1756544203046449188
0.5736967348810489,0.0,1756544203068044120
0.516327061392944,0.0,1756544203085949412
0.46469110450721435,0.0,1756544203113916097
0.5578315385689174,0.0,1756544203133693291
0.5020483847120257,0.0,1756544203137776899
0.5322749373940582,0.0,1756544203158534351
0.47904744365465235,0.0,1756544203172200935
0.43114269928918714,0.0,1756544203192990500
0.5336678850268547,0.0,1756544203221214932
0.48030109652416925,0.0,1756544203237092158
0.5526582865684615,0.0,1756544203254319108
0.4973916151296223,0.0,1756544203274851284
0.4476524536166601,0.0,1756544203296365747
0.48786212880643154,0.0,1756544203317292238
0.4390759159257884,0.0,1756544203340307978
0.6142474554312161,0.0,1756544203358739285
0.5528227098880945,0.0,1756544203380485655
0.497540438899285,0.0,1756544203401946469
0.5222282013241839,0.0,1756544203424243128
0.4699992706624439,0.0,1756544203447846081
0.45681725099134785,0.0,1756544203468616767
0.4111355258922131,0.0,1756544203489693873
0.3700219733029918,0.0,1756544203492774810
0.2836421606783245,0.0,1756544203520381050
0.255277944610492,0.0,1756544203542937077
0.26565065316587116,0.0,1756544203570511379
0.23908558784928405,0.0,1756544203584921977
0.21517702906435565,0.0,1756544203608426412
0.18478799964446463,0.0,1756544203629516116
0.16630919968001817,0.0,1756544203650359776
0.1590335733021439,0.0,1756544203656124290
0.14313021597192951,0.0,1756544203668959543
0.1288163895732489,0.0,1756544203712204741
0.12624291250845437,0.0,1756544203730441456
0.11361862125760894,0.0,1756544203750764530
0.10053083984559462,0.0,1756544203758181847
0.09047726554010463,0.0,1756544203779215883
0.08142953898609417,0.0,1756544203797204811
0.11950005456151672,0.0,1756544203821778511
0.10755016487160994,0.0,1756544203845248286
0.019574821709111,0.0,1756544203861967405
0.0176173395381999,0.0,1756544203883419293
-0.003814824309538188,0.0,1756544203907429916
-0.0034333418785843692,0.0,1756544203922621625
-0.0030900076907259323,0.0,1756544203943629829
-0.020220674111747453,0.0,1756544203964952876
-0.018198606700572707,0.0,1756544203984765473
0.0025042334899826706,0.0,1756544204010269226
0.0022521842099931973,0.0,1756544204025653829
0.0020269657889938775,0.0,1756544204047545899
0.010408620287572912,0.0,1756544204073937897
0.00936775825881562,0.0,1756544204075029244
0.008429888258304638,0.0,1756544204112232951
0.024900755170183378,0.0,1756544204131126046
0.022410679653165042,0.0,1756544204153728441
0.02016961168784854,0.0,1756544204159222934
0.042633474450804676,0.0,1756544204174459690
0.03837012700572421,0.0,1756544204190454130
0.04112919731894542,0.0,1756544204216052396
0.0370128343292742,0.0,1756544204240219741
0.10242243135324788,0.0,1756544204264858112
0.09218018821792309,0.0,1756544204274926979
0.08296216939613078,0.0,1756544204301633445
0.10685334255252338,0.0,1756544204317966892
0.09616800829727104,0.0,1756544204342361723
0.22214122733398894,0.0,1756544204381338326
0.19992710460059004,0.0,1756544204386688258
0.17993439414053106,0.0,1756544204411846853
0.16194095472647796,0.0,1756544204411915259
0.2609197314257538,0.0,1756544204438528442
0.23482775828317842,0.0,1756544204455723889
0.30856993691187273,0.0,1756544204474850847
0.3616523417611989,0.0,1756544204499304786
0.32548710758507904,0.0,1756544204518240908
0.2929352284530801,0.0,1756544204542957781
0.33679152811600155,0.0,1756544204572391968
0.3031123753044014,0.0,1756544204585281341
0.27280113777396126,0.0,1756544204610052824
0.2572343796805739,0.0,1756544204639269696
0.23151094171251652,0.0,1756544204640008333
0.22105247016588744,0.0,1756544204653836888
0.1989472231492987,0.0,1756544204688448798
0.17905250083436883,0.0,1756544204711970457
0.30993505565937984,0.0,1756544204716398847
0.2789413665885918,0.0,1756544204744759711
0.316684890868779,0.0,1756544204764610929
0.2850164017819011,0.0,1756544204782795208
0.25651476160371095,0.0,1756544204806798935
0.23118515276825688,0.0,1756544204834507999
0.2080666374914312,0.0,1756544204835873713
0.22158710555944075,0.0,1756544204872298971
0.19942839500349668,0.0,1756544204888202945
0.17948555550314702,0.0,1756544204910255585
0.2609058783519832,0.0,1756544204916810230
0.23481529051678487,0.0,1756544204935818271
0.3287108055153927,0.0,1756544204957684989
0.29583856959784166,0.0,1756544204981284944
0.2662547126380575,0.0,1756544204996273615
0.3580881667413335,0.0,1756544205019761972
0.32227935006720015,0.0,1756544205038957024
0.42110483592505465,0.0,1756544205061984919
0.3789943523325492,0.0,1756544205080543866
0.34099039282961374,0.0,1756544205116076749
0.5013918426490195,0.0,1756544205125978483
0.45125265838411754,0.0,1756544205148255744
0.5170923482510661,0.0,1756544205169890975
0.4653818526529263,0.0,1756544205193750913
0.4188436673876337,0.0,1756544205196290234
0.5062471841710658,0.0,1756544205216035441
0.45562246575395926,0.0,1756544205234831423
0.5292801779820969,0.0,1756544205256436722
0.47635216018388726,0.0,1756544205272468038
0.42871694416549855,0.0,1756544205293412268
0.624521711227999,0.0,1756544205312993526
0.5620659158179253,0.0,1756544205336962266
0.6868257277048292,0.0,1756544205357163220
0.6181415723491996,0.0,1756544205381922580
0.5563274151142797,0.0,1756544205401651842
0.7289866979522028,0.0,1756544205425830973
0.6560880281569825,0.0,1756544205453396200
0.7018365431786724,0.0,1756544205466760208
0.6316528888608052,0.0,1756544205484190180
0.5684875999747246,0.0,1756544205506046548
0.5726686520103568,0.0,1756544205534619559
0.5154017868093211,0.0,1756544205547149242
0.5339994462807885,0.0,1756544205577595112
0.4805995016527097,0.0,1756544205579441799
0.4325395514874387,0.0,1756544205598754345
0.500892729886237,0.0,1756544205624763797
0.4508034568976133,0.0,1756544205658318626
0.405723111207852,0.0,1756544205659275391
0.4647733304869188,0.0,1756544205684698334
0.41829599743822693,0.0,1756544205700959413
0.4925259233475714,0.0,1756544205728670117
0.44327333101281424,0.0,1756544205742704571
0.4687338867066271,0.0,1756544205766471316
0.42186049803596437,0.0,1756544205787796547
0.47628988661883276,0.0,1756544205812058335
0.4286608979569495,0.0,1756544205834860797
0.40181363011929827,0.0,1756544205860369430
0.36163226710736845,0.0,1756544205875535841
0.3254690403966316,0.0,1756544205906745714
0.318091897350423,0.0,1756544205924862175
0.28628110997348044,0.0,1756544205948833139
0.3171717285670155,0.0,1756544205967108207
0.2854545557103139,0.0,1756544205985187629
0.25690910013928253,0.0,1756544206009118549
0.28191911715844364,0.0,1756544206014663240
0.25372579041832377,0.0,1756544206035731762
0.2283530546014817,0.0,1756544206060509554
0.2175611578735676,0.0,1756544206085142930
0.19580504208621086,0.0,1756544206103623056
0.20381349127349926,0.0,1756544206134018629
0.18343214214614934,0.0,1756544206153330040
0.1650889279315344,0.0,1756544206154870729
0.21127474280028052,0.0,1756544206180849171
0.1901472685202525,0.0,1756544206198489080
0.29860107921452306,0.0,1756544206225043786
0.2687405586307616,0.0,1756544206248527728
0.30968564115251385,0.0,1756544206282379280
0.27871707703726245,0.0,1756544206285111234
0.25084536933353624,0.0,1756544206312999550
0.30328145265846274,0.0,1756544206335605624
0.2729533073926165,0.0,1756544206336624176
0.34068765889882185,0.0,1756544206362906204
0.3066188930089397,0.0,1756544206380832623
0.2759570037080457,0.0,1756544206408645124
0.25533578725472755,0.0,1756544206440856826
0.22980220852925481,0.0,1756544206445745397
0.26125508020587435,0.0,1756544206464124802
0.2351295721852869,0.0,1756544206481929636
0.2440460102705618,0.0,1756544206505736463
0.21963781782270803,0.0,1756544206538489434
0.19767403604043723,0.0,1756544206540406217
0.22386513426922364,0.0,1756544206562956273
0.20147470523819327,0.0,1756544206580868508
0.18132723471437395,0.0,1756544206601140462
0.18109477103642735,0.0,1756544206630124670
0.16298529393278463,0.0,1756544206646076058
0.12502093844690776,0.0,1756544206670422409
0.11251884460221699,0.0,1756544206687876513
0.10120381726450864,0.0,1756544206711746304
0.03775542703760127,0.0,1756544206736882929
0.033979884333841144,0.0,1756544206748348681
-0.05923450799545249,0.0,1756544206755610480
-0.053311057195907244,0.0,1756544206772508324
-0.04797995147631652,0.0,1756544206792726589
-0.11890146032005125,0.0,1756544206820791891
-0.10701203286897448,0.0,1756544206845021413
-0.3431955265589582,0.0,1756544206865573829
-0.3088759739030624,0.0,1756544206886512363
-0.4977113743821966,0.0,1756544206906688400
-0.44794023694397694,0.0,1756544206926370919
-0.4031488131960669,0.0,1756544206953980869
-0.3628339318764602,0.0,1756544206955107230
-0.561284201363121,0.0,1756544206979268879
-0.5051557812268089,0.0,1756544206995272232
-0.6638582975021906,0.0,1756544207025834931
-0.5974755570980163,0.0,1756544207042446322
-0.5377280013882146,0.0,1756544207058258439
-0.6396390117919886,0.0,1756544207086134826
-0.760880199679643,0.0,1756544207103871582
-0.6847921797116787,0.0,1756544207121982657
-0.6163129617405109,0.0,1756544207143624838
-0.7482640031558258,0.0,1756544207166064735
-0.6734376028402432,0.0,1756544207193311252
-0.6060938425562189,0.0,1756544207194931516
-0.7646116260263672,0.0,1756544207222062480
-0.6881522791528087,0.0,1756544207242986044
-0.7309370793176307,0.0,1756544207265391437
-0.6578433713858677,0.0,1756544207279941296
-0.5920590342472809,0.0,1756544207299794796
-0.794414178113503,0.0,1756544207326070686
-0.7149727603021527,0.0,1756544207341157110
-0.7256097933180754,0.0,1756544207366492837
-0.6530533954330916,0.0,1756544207395440589
-0.5877480558897824,0.0,1756544207408423981
-0.7164370986771256,0.0,1756544207420048820
-0.6447933888094131,0.0,1756544207435500599
-0.6831452084780063,0.0,1756544207462900599
-0.6148306876302057,0.0,1756544207485862527
-0.5533476188671851,0.0,1756544207506062448
-0.5996514644334561,0.0,1756544207532109702
-0.53970274111283,0.0,1756544207545914760
-0.6176930746133011,0.0,1756544207567630440
-0.555923767151971,0.0,1756544207589741437
-0.5003313904367739,0.0,1756544207613887135
-1.156466379211526,0.0,1756544207618416180
-1.0408197412903735,0.0,1756544207636213210
-0.9787195027423434,0.0,1756544207669448972
-0.8808475524681091,0.0,1756544207696207407
-0.7927627972212982,0.0,1756544207697941831
-0.733599892018299,0.0,1756544207717606803
-0.6602399028164692,0.0,1756544207734079727
-0.7317448005759168,0.0,1756544207765128353
-0.6585703205183252,0.0,1756544207776066358
-0.5927132884664927,0.0,1756544207795012226
-0.6408300992690018,0.0,1756544207821820682
-0.5767470893421016,0.0,1756544207838897231
-0.640323322844644,0.0,1756544207865715390
-0.5762909905601796,0.0,1756544207881375164
-0.5186618915041616,0.0,1756544207902620775
-0.5735339859812421,0.0,1756544207926755026
-0.5161805873831179,0.0,1756544207945616368
-0.5483926786360801,0.0,1756544207968806000
-0.4935547630882248,0.0,1756544207993969847
-0.44419928677940235,0.0,1756544207995340550
-0.5816447529343731,0.0,1756544208015941958
-0.5234802776409359,0.0,1756544208044054575
-0.5765479049216239,0.0,1756544208066555974
-0.5188931144294615,0.0,1756544208084448816
-0.4670038029865154,0.0,1756544208103480591
-0.5553620260669014,0.0,1756544208128398930
-0.4998385018137783,0.0,1756544208148616084
-0.5126976326918944,0.0,1756544208170190432
-0.461427869422705,0.0,1756544208191503696
-0.4152850824804345,0.0,1756544208196491792
-0.46288204875445815,0.0,1756544208217798063
-0.4165938438790123,0.0,1756544208239839101
-0.4655007138190928,0.0,1756544208262852483
-0.41895154670649265,0.0,1756544208284834504
-0.3770563920358434,0.0,1756544208301029957
-0.46226310958751493,0.0,1756544208326076994
-0.41603679862876347,0.0,1756544208338855387
-0.37443714430783137,0.0,1756544208364400375
-0.42397223017203967,0.0,1756544208389857247
-0.3815750071548357,0.0,1756544208411725769
-0.42484792710170177,0.0,1756544208427298446
-0.3823631343915316,0.0,1756544208444217263
-0.44682282827024133,0.0,1756544208468816385
-0.4021405454432172,0.0,1756544208493324861
-0.3619264908988955,0.0,1756544208494747468
-0.3664747276451832,0.0,1756544208515618683
-0.3298293040383884,0.0,1756544208539280296
-0.2940258249708604,0.0,1756544208564187320
-0.2646232874444415,0.0,1756544208582822803
-0.23816095869999737,0.0,1756544208598811528
-0.18408315027916566,0.0,1756544208630019421
-0.1656748352512491,0.0,1756544208642579394
-0.15348359545501608,0.0,1756544208664954132
-0.1381352359095145,0.0,1756544208684727633
-0.13351829440093357,0.0,1756544208711784203
-0.1203809327857767,0.0,1756544208738680838
-0.16083110033569947,0.0,1756544208760485519
-0.1447496266472708,0.0,1756544208783834220
-0.13027466398254373,0.0,1756544208801879863
-0.16444326866835,0.0,1756544208827059058
-0.147998941801515,0.0,1756544208842514881
-0.13750838804283053,0.0,1756544208872882120
-0.12375754923854748,0.0,1756544208889662040
-0.11138179431469274,0.0,1756544208893561803
-0.04719401829717853,0.0,1756544208923924302
-0.042474616467460674,0.0,1756544208941405342
-0.010786612288874363,0.0,1756544208961466201
-0.009707772450246595,0.0,1756544208988476986
-0.008736995205221936,0.0,1756544209005482447
0.022620790559558908,0.0,1756544209030120258
0.02035871150360302,0.0,1756544209047384374
0.0672589988719514,0.0,1756544209073802942
0.06053309898475626,0.0,1756544209074846583
0.054480040734164896,0.0,1756544209114228608
0.27254253267170075,0.0,1756544209119983374
0.24528827940453068,0.0,1756544209136882086
0.3203286215808665,0.0,1756544209166447562
0.28829575942277985,0.0,1756544209176669519
0.2594661834805019,0.0,1756544209197866747
0.30549540449622276,0.0,1756544209220939640
0.2749458640466005,0.0,1756544209242458581
0.28989600371513496,0.0,1756544209265832882
0.2609064033436215,0.0,1756544209289692443
0.23481576300925933,0.0,1756544209293657507
0.24923013754837223,0.0,1756544209318199650
0.22430770696004565,0.0,1756544209339680893
0.21547816985513854,0.0,1756544209359811202
0.19393035286962468,0.0,1756544209377379802
0.17453731758266222,0.0,1756544209396096870
0.16178198450724274,0.0,1756544209426371409
0.1456043921503284,0.0,1756544209449758110
0.16869265916833995,0.0,1756544209469106542
0.15182339325150596,0.0,1756544209484091048
0.13664105392635537,0.0,1756544209504197280
0.16003544609789283,0.0,1756544209531248194
0.14403190148810355,0.0,1756544209534364624
0.13308295578548587,0.0,1756544209553563710
0.11977466020693729,0.0,1756544209572586095
0.10779439926126766,0.0,1756544209598116882
0.0593505421028838,0.0,1756544209620702637
0.053415493114765046,0.0,1756544209640506208
0.01876636201383352,0.0,1756544209658028451
0.016889725812450167,0.0,1756544209675254357
0.015200753231205151,0.0,1756544209701857063
-0.0015062290098686749,0.0,1756544209724929586
-0.0013556061088818075,0.0,1756544209747212291
-0.035084636636520825,0.0,1756544209767856182
-0.031576172972868743,0.0,1756544209786279422
-0.02841855567558187,0.0,1756544209807453645
-0.02982543127361623,0.0,1756544209833304086
-0.026842888146254608,0.0,1756544209846821650
0.03190456293413786,0.0,1756544209869173627
0.028714106640724078,0.0,1756544209892380957
0.08937985564390903,0.0,1756544209913094645
0.08044187007951813,0.0,1756544209935352541
0.11558822383386974,0.0,1756544209961587904
0.10402940145048277,0.0,1756544209974502183
0.09362646130543449,0.0,1756544209996773138
0.1260948562723331,0.0,1756544210035839534
0.11348550488484063,0.0,1756544210045181960
0.1540554574028788,0.0,1756544210069270244
0.1386499116625909,0.0,1756544210094602252
0.12478492049633183,0.0,1756544210098337140
0.22562112402832218,0.0,1756544210118038545
0.20305901162548998,0.0,1756544210135485658
0.31136089125674843,0.0,1756544210161688021
0.2802246094797831,0.0,1756544210182143919
0.25220214853180484,0.0,1756544210197941037
0.3351730364684341,0.0,1756544210219815216
0.30165535706082597,0.0,1756544210240043460
0.3463640510609883,0.0,1756544210258784447
0.31172764595488944,0.0,1756544210276032894
0.2805548813594005,0.0,1756544210300579322
0.41834240180536775,0.0,1756544210322118866
0.376508161624831,0.0,1756544210345710571
0.4218625649956443,0.0,1756544210362063791
0.3796732237122171,0.0,1756544210391284815
0.34170590134099543,0.0,1756544210414841981
0.3643614531848528,0.0,1756544210428996911
0.32792530786636753,0.0,1756544210447997521
0.43009690143826795,0.0,1756544210472709600
0.3870872112944412,0.0,1756544210474631412
0.34837849016499706,0.0,1756544210497848172
0.4621981031739971,0.0,1756544210523337037
0.41597829285659743,0.0,1756544210537710982
0.4744643176195411,0.0,1756544210564485132
0.42701304385615607,0.0,1756544210583086198
0.3843117394705405,0.0,1756544210607123028
0.418245803150199,0.0,1756544210630249729
0.3764212228351791,0.0,1756544210641620242
0.4191705877969455,0.0,1756544210665689963
0.37725352901725095,0.0,1756544210692674375
0.3395281761155259,0.0,1756544210710508908
0.4418083902029535,0.0,1756544210733646133
0.39762755118265813,0.0,1756544210735178315
0.4368594904228686,0.0,1756544210756749531
0.39317354138058175,0.0,1756544210771851173
0.3538561872425236,0.0,1756544210793746212
0.5092611411942896,0.0,1756544210819765525
0.4583350270748606,0.0,1756544210838165112
0.5551786513695122,0.0,1756544210862390993
0.49966078623256094,0.0,1756544210878877106
0.44969470760930486,0.0,1756544210905314422
0.6158453903995224,0.0,1756544210932626035
0.5542608513595702,0.0,1756544210959048526
0.49883476622361317,0.0,1756544210960159960
0.6365656563511781,0.0,1756544210983049056
0.5729090907160603,0.0,1756544211002957028
0.6162683141500007,0.0,1756544211026886144
0.554639926621194,0.0,1756544211046058126
0.6412092452450193,0.0,1756544211065126432
0.5770883207205174,0.0,1756544211083542162
0.5193794886484657,0.0,1756544211109752577
0.5503375136649095,0.0,1756544211145200096
0.49530376229841855,0.0,1756544211146691386
0.8899083369223173,0.0,1756544211168438648
0.8009175032300856,0.0,1756544211190359493
0.7208257529070771,0.0,1756544211191534178
0.7530648796116407,0.0,1756544211215789737
0.6777537629561861,0.0,1756544211243021450
0.7161016504254087,0.0,1756544211256970830
0.6444907079992049,0.0,1756544211279157961
0.649281479228836,0.0,1756544211299849992
0.5843533313059524,0.0,1756544211316088512
0.5259179981753571,0.0,1756544211339715702
0.5951457073233729,0.0,1756544211371399967
0.5356311365910357,0.0,1756544211397623622
0.5271180228520758,0.0,1756544211407317830
0.4744062205668682,0.0,1756544211424401361
0.4269655985101814,0.0,1756544211445184232
0.42591428982861745,0.0,1756544211472979947
0.38332286084575573,0.0,1756544211492821619
0.34499057476118017,0.0,1756544211495191346
0.3940637114299829,0.0,1756544211518523721
0.35465734028698465,0.0,1756544211542389369
0.33860298018225443,0.0,1756544211565580977
0.304742682164029,0.0,1756544211579263364
0.27426841394762613,0.0,1756544211599168050
0.2377878203195268,0.0,1756544211620847019
0.21400903828757412,0.0,1756544211644814004
0.2202549159771768,0.0,1756544211665953249
0.19822942437945912,0.0,1756544211686667688
0.1784064819415132,0.0,1756544211709202711
0.012251342330691833,0.0,1756544211734456056
0.01102620809762265,0.0,1756544211735757010
-0.016988911782650128,0.0,1756544211757671744
-0.015290020604385115,0.0,1756544211778113469
-0.071156977521846,0.0,1756544211808713419
-0.0640412797696614,0.0,1756544211823265979
-0.05763715179269526,0.0,1756544211845325762
-0.2514698728218196,0.0,1756544211865535849
-0.22632288553963764,0.0,1756544211890177910
-0.20369059698567388,0.0,1756544211906781088
-0.22663178019805197,0.0,1756544211938347550
-0.20396860217824678,0.0,1756544211944278158
-0.3028648928280074,0.0,1756544211957274303
-0.2725784035452066,0.0,1756544211980216310
-0.2903138766712893,0.0,1756544212008852657
-0.26128248900416035,0.0,1756544212030186292
-0.23515824039377278,0.0,1756544212054641109
-0.2116424163543955,0.0,1756544212056042029
-0.28785923294548926,0.0,1756544212074527375
-0.25907330965094033,0.0,1756544212094763405
-0.591596289004158,0.0,1756544212120818064
-0.5324366601037421,0.0,1756544212142216970
-0.9067022973379409,0.0,1756544212167219741
-0.8160320676041468,0.0,1756544212186052699
-0.7344383017358624,0.0,1756544212212114632
-1.3502325348302184,0.0,1756544212232741794
-1.2152092813471966,0.0,1756544212238139127
-1.4496685434860745,0.0,1756544212256135409
-1.3047016891374672,0.0,1756544212270433648
-1.1742315202237206,0.0,1756544212296012880
-1.566074849121504,0.0,1756544212316297476
-1.4094673642093536,0.0,1756544212336018464
-1.478009660350824,0.0,1756544212368928324
-1.3302086943157416,0.0,1756544212382684713
-1.1971878248841674,0.0,1756544212404443585
-1.3982380983398042,0.0,1756544212435886949
-1.2584142885058238,0.0,1756544212437297613
-1.3853515868489499,0.0,1756544212472555015
-1.246816428164055,0.0,1756544212489404681
-1.1221347853476495,0.0,1756544212491355830
-1.4143885896116064,0.0,1756544212513081741
-1.2729497306504458,0.0,1756544212534488073
-1.1456547575854013,0.0,1756544212560881109
-1.2796041716001074,0.0,1756544212584456340
-1.1516437544400968,0.0,1756544212601386756
-1.2182188326861825,0.0,1756544212631551483
-1.0963978495158535,0.0,1756544212659661264
-0.9867580645642682,0.0,1756544212661039818
-1.3821742638090597,0.0,1756544212684122154
-1.4887356879140212,0.0,1756544212705875988
-1.3398621191226192,0.0,1756544212730459546
-1.2058759072103573,0.0,1756544212752528414
-1.0852883164893217,0.0,1756544212753838902
-1.3197558809239354,0.0,1756544212776583078
-1.187780292831542,0.0,1756544212798092400
-1.2274294750373564,0.0,1756544212829085529
-1.1046881632364403,0.0,1756544212849532711
-1.132115111222327,0.0,1756544212872810158
-1.0189036001000944,0.0,1756544212873934645
-0.917013240090085,0.0,1756544212898184979
-0.9925931089084564,0.0,1756544212916546396
-0.8933337980176108,0.0,1756544212937179037
-0.8999156058119127,0.0,1756544212965441059
-0.8099253679771401,0.0,1756544212987712708
-0.7289328311794261,0.0,1756544213004238962
-0.7485587401117234,0.0,1756544213021830684
-0.6737028661005511,0.0,1756544213037600585
-0.6258145252752255,0.0,1756544213064167238
-0.563233072747703,0.0,1756544213079509035
-0.5199723569475477,0.0,1756544213104971170
-0.4680068976430587,0.0,1756544213124730441
-0.42120620787875285,0.0,1756544213144221999
-0.375864660598737,0.0,1756544213168681325
-0.3382781945388633,0.0,1756544213187141956
-0.304450375084977,0.0,1756544213206334741
-0.27223769701379874,0.0,1756544213231211028
-0.24501392731241886,0.0,1756544213246188682
-0.24771107626136596,0.0,1756544213268692472
-0.2229397078440854,0.0,1756544213290093628
-0.20064573705967687,0.0,1756544213307117382
-0.1742595717244589,0.0,1756544213327780359
-0.15683361455201303,0.0,1756544213344345205
-0.12301536735215261,0.0,1756544213371611218
-0.11071383061693735,0.0,1756544213387391824
-0.09964244755524361,0.0,1756544213406225110
-0.03799976421020624,0.0,1756544213433422728
-0.034199787789185615,0.0,1756544213457855400
-0.030779809010267053,0.0,1756544213460310721
0.11317255086104117,0.0,1756544213479360791
0.22250413796244883,0.0,1756544213505976623
0.20025476795671504,0.0,1756544213526298951
0.18022929116104355,0.0,1756544213546900442
0.23193705492342548,0.0,1756544213567892460
0.20874334943108294,0.0,1756544213589794365
0.4295814338054937,0.0,1756544213611794482
0.3866232904249443,0.0,1756544213617902423
0.34796096138244986,0.0,1756544213637691615
0.3569337413039103,0.0,1756544213656979978
0.3212403671735193,0.0,1756544213675870056
0.28911633045616736,0.0,1756544213696837631
0.2613783813855727,0.0,1756544213719972253
0.23523942634326114,0.0,1756544213741269967
0.21595678219961648,0.0,1756544213760257569
0.19436110397965484,0.0,1756544213775247027
0.17492499358168936,0.0,1756544213805329134
0.1905447445584285,0.0,1756544213826824809
0.17149027010258566,0.0,1756544213844925258
0.2072721352301277,0.0,1756544213865912549
0.18654492170711492,0.0,1756544213886674036
0.16789042953640343,0.0,1756544213907508901
0.21774451224254918,0.0,1756544213932397418
0.19597006101829426,0.0,1756544213953457521
0.2523725784000834,0.0,1756544213968180005
0.2271353205600751,0.0,1756544213974102553
0.2044217885040676,0.0,1756544213993326252
0.2530637854015637,0.0,1756544214014852030
0.22775657525910034,0.0,1756544214039961731
0.25882374331720126,0.0,1756544214059362850
0.23294136898548115,0.0,1756544214072696814
0.20964723208693303,0.0,1756544214091145034
0.228593883181001,0.0,1756544214115340768
0.2057344948629009,0.0,1756544214129778492
0.2217327230150703,0.0,1756544214172588495
0.19955945071356326,0.0,1756544214173899589
0.17960350564220695,0.0,1756544214192091893
0.22880549120558819,0.0,1756544214226866518
0.2059268803802951,0.0,1756544214234095209
0.21740745683865176,0.0,1756544214256045557
0.1956667111547866,0.0,1756544214271476483
0.19899788558613554,0.0,1756544214300304283
0.179098097027522,0.0,1756544214312261529
0.1611882873247698,0.0,1756544214338011420
0.17601996134738443,0.0,1756544214357587466
0.15841796521264598,0.0,1756544214382876229
0.14257498364008872,0.0,1756544214407244878
0.18154099911795776,0.0,1756544214422030049
0.16338689920616198,0.0,1756544214448425761
0.23315758856109248,0.0,1756544214467592713
0.20984027103101113,0.0,1756544214490268120
0.18885624392791003,0.0,1756544214524404047
0.2237118920794266,0.0,1756544214538174589
0.20134070287148395,0.0,1756544214544816685
0.22198138993440586,0.0,1756544214567517272
0.19967792735013323,0.0,1756544214588578471
0.17971013461511992,0.0,1756544214606607147
0.1749691011844309,0.0,1756544214627174413
0.1574721910659878,0.0,1756544214644825462
0.15288509422059138,0.0,1756544214667814051
0.13759658479853223,0.0,1756544214684597883
0.12383293593418507,0.0,1756544214712488093
0.13724325408857072,0.0,1756544214735995258
0.12351892867971365,0.0,1756544214737094753
0.1619871094378944,0.0,1756544214761383618
0.14578839849410496,0.0,1756544214784153496
0.13120955864469447,0.0,1756544214808337495
0.15035504099495609,0.0,1756544214832790654
0.13531953689546047,0.0,1756544214849468011
0.16469321386187336,0.0,1756544214869703303
0.14822389247568601,0.0,1756544214895248822
0.13340150322811742,0.0,1756544214896796033
0.04570098060465984,0.0,1756544214918996211
0.04113088254419386,0.0,1756544214932247494
-0.01563430169744516,0.0,1756544214956650325
-0.014070871527700644,0.0,1756544214973849431
-0.01266378437493058,0.0,1756544214999831648
-0.031553398556491356,0.0,1756544215023822870
-0.028541228564433193,0.0,1756544215055883340
-0.059451077407699435,0.0,1756544215070819746
-0.05350596966692949,0.0,1756544215091188637
-0.048155372700236544,0.0,1756544215096309531
-0.2203929927451143,0.0,1756544215120646485
-0.1983536934706029,0.0,1756544215138292125
-0.3091462968948129,0.0,1756544215162920807
-0.2782316672053316,0.0,1756544215182581103
-0.25040850048479846,0.0,1756544215203994417
-0.31763806438042747,0.0,1756544215227711195
-0.28587425794238475,0.0,1756544215252532974
-0.2572868321481463,0.0,1756544215253923267
-0.26900751128381956,0.0,1756544215277244533
-0.2421067601554376,0.0,1756544215295267747
-0.23350557334508543,0.0,1756544215315581138
-0.21015713047933698,0.0,1756544215339629410
-0.23808965689625847,0.0,1756544215372424120
-0.21428069120663262,0.0,1756544215399668828
-0.1380326365743637,0.0,1756544215408531834
-0.12422944099295216,0.0,1756544215422090400
-0.11180649689365695,0.0,1756544215446384179
-0.07291219457335055,0.0,1756544215475815335
-0.0656209751160155,0.0,1756544215477089149
-0.05905887760441395,0.0,1756544215492842783
0.031279759474095975,0.0,1756544215518333222
0.02815204935024951,0.0,1756544215536297696
0.13241885696708464,0.0,1756544215558468293
0.11917697127037617,0.0,1756544215575408959
0.10725927414333855,0.0,1756544215596481667
0.189347820067661,0.0,1756544215622313725
0.17041323348860446,0.0,1756544215641606311
0.1945552785162661,0.0,1756544215663525118
0.1750997506646395,0.0,1756544215677824385
0.15758977559817555,0.0,1756544215702179563
0.21874404288366522,0.0,1756544215738388788
0.1968696385952987,0.0,1756544215739667544
0.3129624570019296,0.0,1756544215763572254
0.28166621130173664,0.0,1756544215781012364
0.253499590171563,0.0,1756544215805944041
0.33923766768167374,0.0,1756544215826486337
0.3053138862410234,0.0,1756544215852953804
0.2747824976169211,0.0,1756544215854195661
0.332705301010765,0.0,1756544215875420324
0.2994347709096885,0.0,1756544215893941643
0.35820500213193246,0.0,1756544215916627441
0.32238450191873924,0.0,1756544215936503754
0.37116462905169706,0.0,1756544215956028309
0.3340481661465274,0.0,1756544215978654405
0.3006392119340636,0.0,1756544216007563981
0.3768587302196892,0.0,1756544216023017911
0.3391728571977203,0.0,1756544216043678124
0.38434247411124856,0.0,1756544216071164403
0.3459082267001237,0.0,1756544216080441910
0.3112129292771432,0.0,1756544216105213701
0.40896031228137464,0.0,1756544216130562604
0.36805361269776704,0.0,1756544216147892408
0.4803460393631162,0.0,1756544216172668665
0.4323114354268046,0.0,1756544216173775053
0.3890802918841242,0.0,1756544216199559710
0.5041936360927692,0.0,1756544216223433495
0.45377427248349234,0.0,1756544216240256338
0.5336187947244648,0.0,1756544216266454368
0.48025691525201836,0.0,1756544216281283946
0.6091201330068475,0.0,1756544216306037761
0.5482081197061628,0.0,1756544216326283647
0.4933849674924079,0.0,1756544216344891599
0.5612645808353613,0.0,1756544216368201354
0.5051381227518252,0.0,1756544216389945155
0.4546243104766427,0.0,1756544216396485801
0.5038166359613514,0.0,1756544216414653249
0.4534349723652163,0.0,1756544216433572488
0.3691025736152798,0.0,1756544216458500728
0.33219110927202133,0.0,1756544216477560697
0.2989719983448192,0.0,1756544216500378779
0.2524834785653936,0.0,1756544216522992568
0.22723513070885426,0.0,1756544216542527574
0.19517789848346204,0.0,1756544216568597294
0.17566010863511583,0.0,1756544216589012163
0.15809409777160424,0.0,1756544216605401689
0.2010986648816947,0.0,1756544216633787219
0.18098879839352525,0.0,1756544216646975172
0.21811359197576657,0.0,1756544216665358855
0.19629785235183939,0.0,1756544216689307899
0.17666806711665545,0.0,1756544216707049187
0.186446084101151,0.0,1756544216731478282
0.1678014756910359,0.0,1756544216751320665
0.174860653805136,0.0,1756544216757111802
0.1573745884246224,0.0,1756544216777454167
0.1416353698362556,0.0,1756544216795879521
0.12140580967487466,0.0,1756544216818403768
0.1092652287073872,0.0,1756544216836391675
0.06530207055111137,0.0,1756544216862900313
0.05877153714584245,0.0,1756544216886240522
0.030867517147454084,0.0,1756544216905970437
0.027780765432708677,0.0,1756544216928312942
0.02500268888943781,0.0,1756544216944736604
-0.0045692536263993305,0.0,1756544216967412162
-0.004112328263759397,0.0,1756544216986929054
-0.014012645973582349,0.0,1756544217016426783
-0.012611381376224114,0.0,1756544217017717597
-0.011350243238601702,0.0,1756544217031354693
-0.06689739663339848,0.0,1756544217057094015
-0.060207656970058636,0.0,1756544217072818431
-0.05418964801369759,0.0,1756544217097205592
-0.10222484489696183,0.0,1756544217115182478
-0.09200211507567611,0.0,1756544217135901075
-0.09559692304625082,0.0,1756544217157831656
-0.08603723074162574,0.0,1756544217171526307
-0.07743350766746317,0.0,1756544217198897797
-0.10532868912644927,0.0,1756544217219769704
-0.09479582021380435,0.0,1756544217238254107
-0.1039015530653663,0.0,1756544217264584299
-0.09351139775882968,0.0,1756544217290636778
-0.1007621603064032,0.0,1756544217300674105
-0.0906866773317203,0.0,1756544217330970501
-0.08161695970095718,0.0,1756544217353243192
-0.0674202719675576,0.0,1756544217368786026
-0.06067824477080184,0.0,1756544217390640938
-0.05461042029372166,0.0,1756544217393255526
-0.043678729965982536,0.0,1756544217419136825
-0.039310856969384286,0.0,1756544217443412427
0.00770957208497889,0.0,1756544217474320528
0.006938614876481001,0.0,1756544217492649975
0.0062447533888329,0.0,1756544217493561721
0.07422797842961328,0.0,1756544217519222423
0.06680516758342614,0.0,1756544217539376766
0.1564360570461581,0.0,1756544217562015546
0.14079245134154228,0.0,1756544217579688999
0.17189998325470532,0.0,1756544217610490043
0.1547099849292348,0.0,1756544217624776796
0.13923886903462598,0.0,1756544217652178598
0.20436350897966976,0.0,1756544217656263933
0.1839271580817028,0.0,1756544217670261423
0.1655344422735325,0.0,1756544217693416431
0.22395816286769543,0.0,1756544217725403316
0.20156208157500646,0.0,1756544217745294722
0.1965253906929862,0.0,1756544217772568244
0.17687285162368757,0.0,1756544217785887527
0.2327902033455092,0.0,1756544217812116112
0.20951118301095828,0.0,1756544217830559213
0.18856006470986245,0.0,1756544217832410679
0.16970405823887622,0.0,1756544217860899091
0.1944921501812594,0.0,1756544217897455346
0.17504293516313346,0.0,1756544217898681705
0.23461669406333946,0.0,1756544217922165307
0.21115502465700553,0.0,1756544217940206957
0.2064084681350458,0.0,1756544217974897163
0.1857650294699214,0.0,1756544217991225640
0.16718852652292926,0.0,1756544218012321392
0.23720461392776343,0.0,1756544218020898354
0.2134841525349871,0.0,1756544218046127706
0.2885823130022776,0.0,1756544218065978455
0.25972408170204986,0.0,1756544218083098057
0.23364825594089175,0.0,1756544218111822424
0.41736015769475343,0.0,1756544218133678065
0.3756241419252781,0.0,1756544218155965595
0.49480141734600025,0.0,1756544218159857033
0.4453212756114002,0.0,1756544218173157741
0.40078709412583413,0.0,1756544218199110947
0.4253041424722428,0.0,1756544218225071158
0.38277372822501854,0.0,1756544218239206178
0.32800497984407884,0.0,1756544218262904425
0.29520448185967096,0.0,1756544218282232179
0.26568403367370386,0.0,1756544218304945454
0.201441157084915,0.0,1756544218332410267
0.1812970413764235,0.0,1756544218344952413
0.07527420281123329,0.0,1756544218369714203
0.06774678253010996,0.0,1756544218390562524
0.06097210427709897,0.0,1756544218395638041
-0.03686818261542508,0.0,1756544218420190930
-0.033181364353882574,0.0,1756544218434159975
-0.11311508920653493,0.0,1756544218458284456
-0.10180358028588143,0.0,1756544218481168416
-0.09162683718027646,0.0,1756544218503064149
-0.19376024488392196,0.0,1756544218532349199
-0.17438422039552978,0.0,1756544218550767584
-0.1569457983559768,0.0,1756544218555125008
-0.4524611724471981,0.0,1756544218583395546
-0.4072150552024783,0.0,1756544218598723214
-0.554425643778764,0.0,1756544218620203349
-0.49898307940088765,0.0,1756544218641134175
-0.5598812165926368,0.0,1756544218668875890
-0.5038930949333731,0.0,1756544218691202158
-0.4535037854400358,0.0,1756544218714107241
-5.264001730895932,0.0,1756544218718315314
-4.73760349525248,0.0,1756544218742616629
-4.40925600101657,0.0,1756544218768960237
-3.968330400914913,0.0,1756544218778302342
-3.5714973608234217,0.0,1756544218802071926
-3.4047514885320775,0.0,1756544218819633111
-3.06427633967887,0.0,1756544218841026780
-2.8798029780207677,0.0,1756544218870362740
-2.5918226802186908,0.0,1756544218881003693
-2.3326404121968216,0.0,1756544218904814527
-2.3721572344078967,0.0,1756544218928168210
-2.1349415109671073,0.0,1756544218949876604
-2.0410790153340796,0.0,1756544218964400456
-1.8369711138006717,0.0,1756544218987694531
-1.6532779625645684,0.0,1756544219009863795
-1.5737868908444317,0.0,1756544219032918523
-1.4164082017599886,0.0,1756544219034035067
-1.2747673815839897,0.0,1756544219051123304
-1.2359137465794259,0.0,1756544219074835539
-1.1123223719214834,0.0,1756544219094039079
-1.0445909976388625,0.0,1756544219121887190
-0.9401318978749763,0.0,1756544219136642792
-0.852769240325473,0.0,1756544219166263837
-0.7674923162929257,0.0,1756544219181447548
-0.6907430846636331,0.0,1756544219202614105
-0.5754372022154223,0.0,1756544219227619411
-0.5178948521362327,0.0,1756544219253031318
-0.4661053669226094,0.0,1756544219254318886
-0.37502340294521525,0.0,1756544219278123723
-0.3375210626506937,0.0,1756544219291386463
-0.22083336366183698,0.0,1756544219317259079
-0.1987796305762899,0.0,1756544219352686495
-0.07470397665239975,0.0,1756544219374882459
-0.06723357898715977,0.0,1756544219394599444
-0.0605102210884438,0.0,1756544219403201398
0.03663167833809082,0.0,1756544219429644674
0.032969672047641015,0.0,1756544219455140405
0.1315487988136732,0.0,1756544219461336800
0.11839391893230589,0.0,1756544219477209744
0.1065545270390753,0.0,1756544219499277171
0.1754619613960454,0.0,1756544219525580311
0.15791576525644085,0.0,1756544219549368765
0.4525783621933499,0.0,1756544219569752912
0.4073205259740149,0.0,1756544219590657496
0.36658847337661343,0.0,1756544219592876732
0.46863287237801454,0.0,1756544219620105220
0.42176776905805735,0.0,1756544219636850916
0.5658685691275119,0.0,1756544219657027917
0.5092817122147607,0.0,1756544219671319613
0.4583535409932846,0.0,1756544219693538868
0.5678518758899939,0.0,1756544219722086780
0.511063046060543,0.0,1756544219737059778
0.6980694932529691,0.0,1756544219758851426
0.6282625439276722,0.0,1756544219776126548
0.5654358696206446,0.0,1756544219803503960
0.6981592926898826,0.0,1756544219827920179
0.6283433634208944,0.0,1756544219845473182
0.7091097470943641,0.0,1756544219872714761
0.6381987723849277,0.0,1756544219896811861
0.5743788951464349,0.0,1756544219900052035
0.6303639332511458,0.0,1756544219922677518
0.5673275399260312,0.0,1756544219936773442
0.5105947859334281,0.0,1756544219957387401
0.5556504158831572,0.0,1756544219986173894
0.5000853742948416,0.0,1756544220010981547
0.6705337018919877,0.0,1756544220037190574
0.6034814335357427,0.0,1756544220049269319
0.6229967257181565,0.0,1756544220077211376
0.5606970531463408,0.0,1756544220078826742
0.5046273478317067,0.0,1756544220093528757
0.5735257084853893,0.0,1756544220125207348
0.5161731376368504,0.0,1756544220148902901
0.6155336250956769,0.0,1756544220181848383
0.5539802625861092,0.0,1756544220183503371
0.49858139582763306,0.0,1756544220211580055
0.5821486697414808,0.0,1756544220231920900
0.5239338027673328,0.0,1756544220249430606
0.6270301771466236,0.0,1756544220271640692
0.5643271594319612,0.0,1756544220272844416
0.6517825914146131,0.0,1756544220297685587
0.5866043322731519,0.0,1756544220318182290
0.5279438990458367,0.0,1756544220342858945
0.6040674312558273,0.0,1756544220372806577
0.5436606881302446,0.0,1756544220391940898
0.4892946193172201,0.0,1756544220400792771
0.557423191969485,0.0,1756544220424857012
0.5016808727725365,0.0,1756544220435937682
0.5357105651718952,0.0,1756544220458326061
0.4821395086547057,0.0,1756544220479994549
0.43392555778923514,0.0,1756544220506650376
0.4664583470291818,0.0,1756544220537943003
0.41981251232626365,0.0,1756544220540150540
0.39844846212739193,0.0,1756544220561999680
0.35860361591465273,0.0,1756544220579788965
0.32274325432318746,0.0,1756544220603247249
0.3251482972761106,0.0,1756544220628385318
0.29263346754849956,0.0,1756544220650289745
0.2604054751772049,0.0,1756544220680681775
0.23436492765948444,0.0,1756544220681560790
0.210928434893536,0.0,1756544220695933577
0.18668970610069185,0.0,1756544220721774376
0.16802073549062269,0.0,1756544220744088189
0.15987721013929518,0.0,1756544220764263765
0.14388948912536567,0.0,1756544220788665735
0.1295005402128291,0.0,1756544220812968742
0.13043088552560658,0.0,1756544220818145161
0.11738500140808278,0.0,1756544220848354817
0.09241280777319318,0.0,1756544220864168278
0.08316807223934856,0.0,1756544220891453142
0.0279310955789685,0.0,1756544220915281604
0.025137986021071652,0.0,1756544220916820522
0.022625401852592254,0.0,1756544220946043310
0.02036286166733303,0.0,1756544220958287156
-0.03313543189172156,0.0,1756544220985571765
-0.07717930646330325,0.0,1756544221004232221
-0.06945940865445116,0.0,1756544221028878686
-0.06251346778900604,0.0,1756544221048796162
-0.052919255960223094,0.0,1756544221055603485
-0.04762733036420078,0.0,1756544221078474785
-0.06885689450809629,0.0,1756544221114210994
-0.06197120505728666,0.0,1756544221115160143
-0.055774084551557995,0.0,1756544221136832753
-0.08447130598960281,0.0,1756544221168362468
-0.07602417539064253,0.0,1756544221179903667
-0.06842175785157828,0.0,1756544221205888544
-0.08375159813851107,0.0,1756544221233773409
-0.07537643862632977,0.0,1756544221249121532
-0.09320628825053581,0.0,1756544221270294468
-0.08388565942548223,0.0,1756544221291379075
-0.07549709348293401,0.0,1756544221292785148
-0.10032479057754337,0.0,1756544221319823398
-0.09029231151978903,0.0,1756544221339598685
-0.0664582560880463,0.0,1756544221369873884
-0.059812430479241674,0.0,1756544221397984777
-0.053831187431317505,0.0,1756544221399082846
-0.020172237351803977,0.0,1756544221414539859
-0.01815725740019702,0.0,1756544221438887691
0.0270714497059204,0.0,1756544221463323411
0.02436430473532836,0.0,1756544221477272666
0.021927874261795526,0.0,1756544221497285467
0.1006767626285142,0.0,1756544221520488421
0.09060908636566278,0.0,1756544221547397630
0.17305153000854667,0.0,1756544221573920781
0.155746377007692,0.0,1756544221586304762
0.1401717393069228,0.0,1756544221607500848
0.16747106030952613,0.0,1756544221635301634
0.15072395427857352,0.0,1756544221636509736
0.13565155885071617,0.0,1756544221657766092
0.22798434407297585,0.0,1756544221682804731
0.20518590966567826,0.0,1756544221704633168
0.25853510127853024,0.0,1756544221727152592
0.2326815911506772,0.0,1756544221743655894
0.2545565564157229,0.0,1756544221771471938
0.22910083709232315,0.0,1756544221793124746
0.30898905595434056,0.0,1756544221813035130
0.2780901503589065,0.0,1756544221815533887
0.2502811353230159,0.0,1756544221830966777
0.3610855190385951,0.0,1756544221853273343
0.3249769671347356,0.0,1756544221873797970
0.29247693820586346,0.0,1756544221901174731
0.4336421999584308,0.0,1756544221923087304
0.39027797996258773,0.0,1756544221940405751
0.45056639065197396,0.0,1756544221974841862
0.40550975158677655,0.0,1756544221987854866
0.3649587764280989,0.0,1756544222011983191
0.4891526605851433,0.0,1756544222019332980
0.4402367601297295,0.0,1756544222043035184
0.39621308411675654,0.0,1756544222058387074
0.4457737288803156,0.0,1756544222080133689
0.40119635599228404,0.0,1756544222096687578
0.4710971974091416,0.0,1756544222121717266
0.4239874776682274,0.0,1756544222139898676
0.4888062978710021,0.0,1756544222163215140
0.4399256680839019,0.0,1756544222181176512
0.3959290726421519,0.0,1756544222209659971
0.44906508075776763,0.0,1756544222232899932
0.4041585726819909,0.0,1756544222233603178
0.4859179008738146,0.0,1756544222258837435
0.4372664854270475,0.0,1756544222286911219
0.39353983688434274,0.0,1756544222301319336
0.4002150903934808,0.0,1756544222327523331
0.3601935813541327,0.0,1756544222341259813
0.3787247755804801,0.0,1756544222363895263
0.3408522980224321,0.0,1756544222396558096
0.3067670682201889,0.0,1756544222398569697
0.3149508455454402,0.0,1756544222425160986
0.2834560366916384,0.0,1756544222443584495
0.25511043302247455,0.0,1756544222460761659
0.24155171027899502,0.0,1756544222486299672
0.21739653925109553,0.0,1756544222504239327
0.21393737895959716,0.0,1756544222533366144
0.19254363559759177,0.0,1756544222553523614
0.18183889262653516,0.0,1756544222575435859
0.16365500336388164,0.0,1756544222576519435
0.14728950302749347,0.0,1756544222598417948
0.13598220187586044,0.0,1756544222622417841
0.1223839816882744,0.0,1756544222640427407
0.12222124917080794,0.0,1756544222664827281
0.10999912425372715,0.0,1756544222687435232
0.09899921182835444,0.0,1756544222707254028
0.08825722719915216,0.0,1756544222737966438
0.07943150447923694,0.0,1756544222739174625
0.0697884614676597,0.0,1756544222758203185
0.06280961532089373,0.0,1756544222775234451
0.05652536539625054,0.0,1756544222800259587
0.0519386334528392,0.0,1756544222821618454
0.04674462680716743,0.0,1756544222846736729
0.012291551054353402,0.0,1756544222864339284
0.011062395948918061,0.0,1756544222894072474
0.009956156354026255,0.0,1756544222895461242
-0.015658233874541155,0.0,1756544222924383519
-0.014093295470888837,0.0,1756544222942847801
-0.012683965923799953,0.0,1756544222960772283
-0.023623764830188458,0.0,1756544222988033309
-0.02126138834716961,0.0,1756544223004942708
-0.04850280428174922,0.0,1756544223031887773
-0.0436525238535743,0.0,1756544223053642827
-0.039287271468216874,0.0,1756544223054794604
-0.16412032082643932,0.0,1756544223076772293
-0.14770828874379538,0.0,1756544223095488358
-0.2925488706342797,0.0,1756544223120260160
-0.2632944796723334,0.0,1756544223150227181
-0.3599777438347576,0.0,1756544223166628638
-0.3239799694512819,0.0,1756544223187855452
-0.2915819725061537,0.0,1756544223207114666
-0.31838699015932986,0.0,1756544223239176165
-0.5442265990537218,0.0,1756544223254458322
-0.4898039391483497,0.0,1756544223276540441
-0.44082354523351475,0.0,1756544223295701825
-0.5160956373799075,0.0,1756544223326841844
-0.46448607364191674,0.0,1756544223348153286
-0.44840162213270784,0.0,1756544223374555551
-0.4035614599194371,0.0,1756544223388233038
-0.4561391154437142,0.0,1756544223425258320
-0.4105257971721071,0.0,1756544223448622677
-0.4457169403363025,0.0,1756544223466012975
-0.40114524630267223,0.0,1756544223485410989
-0.361030721672405,0.0,1756544223506069336
-0.387981900202396,0.0,1756544223541575338
-0.3491837101821564,0.0,1756544223557262024
-0.4219750853957437,0.0,1756544223584278835
-0.3797775768561693,0.0,1756544223609177717
-0.40745272133892607,0.0,1756544223629826043
-0.36670744920503345,0.0,1756544223650165070
-0.33003670428453014,0.0,1756544223652617962
-0.36631759169104605,0.0,1756544223680849840
-0.32968583252194145,0.0,1756544223703615924
-0.32969436693152904,0.0,1756544223744694491
-0.3295661569891615,0.0,1756544223759408026
-0.29660954129024536,0.0,1756544223782402280
-0.26694858716122083,0.0,1756544223802571036
-0.30925243994666096,0.0,1756544223826784728
-0.2783271959519949,0.0,1756544223843592467
-0.35425314241497774,0.0,1756544223865051966
-0.31882782817348,0.0,1756544223885462888
-0.34677587455108655,0.0,1756544223907206357
-0.3120983473843942,0.0,1756544223936504426
-0.28088851264595477,0.0,1756544223937953470
-0.26250983825113866,0.0,1756544223960690727
-0.2362588544260248,0.0,1756544223985803129
-0.21263296898342232,0.0,1756544223993918856
-0.13737426816209392,0.0,1756544224020475640
-0.12363684134588453,0.0,1756544224038157754
-0.06433802761629341,0.0,1756544224065420543
-0.05790803713171332,0.0,1756544224089486961
0.07056805303318492,0.0,1756544224115916387
0.06351124772986642,0.0,1756544224130924353
0.05716001019390157,0.0,1756544224161231572
0.05144400917451142,0.0,1756544224162655621
0.26650284679409386,0.0,1756544224178930773
0.23985256211468448,0.0,1756544224198597633
0.4671941505753564,0.0,1756544224218386207
0.4204738790827113,0.0,1756544224241045534
0.5794433580925478,0.0,1756544224263119814
0.521499022283293,0.0,1756544224279533749
0.46934912005496376,0.0,1756544224305786952
0.5445044886692295,0.0,1756544224325575213
0.49005403980230655,0.0,1756544224343674398
0.6210901147071649,0.0,1756544224367851934
0.5589799837019465,0.0,1756544224395529140
0.5030819853317519,0.0,1756544224397025122
0.5614806811407465,0.0,1756544224422006629
0.5053326130266719,0.0,1756544224439741126
0.6037786751315922,0.0,1756544224463925486
0.543400807618433,0.0,1756544224476799924
0.48906072685658974,0.0,1756544224497577295
0.5318397366060698,0.0,1756544224525427421
0.4786540233271645,0.0,1756544224542844585
0.5318161234184884,0.0,1756544224573978643
0.47863451107663957,0.0,1756544224575753552
0.43077105996897563,0.0,1756544224593833195
0.4503757754261742,0.0,1756544224617227522
0.4053381978835568,0.0,1756544224634286078
0.39706788562329215,0.0,1756544224658258833
0.3573610970609629,0.0,1756544224676359645
0.3216249873548666,0.0,1756544224696870698
0.2663694059978585,0.0,1756544224721048304
0.23972829684624006,0.0,1756544224740701818
0.2017238241093447,0.0,1756544224760482644
0.18155144169841023,0.0,1756544224776447817
0.13274640136119994,0.0,1756544224810739104
0.11947173983896929,0.0,1756544224825953688
0.10752270334125816,0.0,1756544224849699244
0.06406857491327028,0.0,1756544224870028812
0.05766171742194325,0.0,1756544224887014678
0.051895545679748925,0.0,1756544224908336837
0.009229446913001989,0.0,1756544224934048027
0.008306502221701791,0.0,1756544224937710258
0.007472582197005095,0.0,1756544224958428498
-0.07982793810947066,0.0,1756544224992395529
-0.11440578805829613,0.0,1756544225013385018
-0.10296553860570959,0.0,1756544225027126467
-0.09266898474513863,0.0,1756544225042095019
-0.08599954781536834,0.0,1756544225059832796
-0.07739959303383151,0.0,1756544225083155588
-0.06965963373044837,0.0,1756544225101687048
-0.07717737656873448,0.0,1756544225130553445
-0.06945963891186104,0.0,1756544225141090117
-0.0637720033746408,0.0,1756544225164527616
-0.05739480303717672,0.0,1756544225181929639
-0.05165532273345905,0.0,1756544225208131750
-0.07015825569060619,0.0,1756544225234387359
-0.06314243012154556,0.0,1756544225250756498
-0.09741382573369595,0.0,1756544225269535027
-0.08767441991488309,0.0,1756544225290202399
-0.07890697792339478,0.0,1756544225312691197
-0.13881932722171517,0.0,1756544225317444585
-0.12493739449954365,0.0,1756544225333794599
-0.11244365504958928,0.0,1756544225356223221
-0.14716794615291237,0.0,1756544225378755465
-0.13245115153762113,0.0,1756544225396259303
-0.16326655311046767,0.0,1756544225419991976
-0.1469398977994209,0.0,1756544225434602040
-0.17354087751247207,0.0,1756544225460581461
-0.15618678976122488,0.0,1756544225477275024
-0.1405681107851024,0.0,1756544225498515601
-0.1572815975361809,0.0,1756544225519908766
-0.14155343778256282,0.0,1756544225539707098
-0.12739809400430654,0.0,1756544225560853206
-0.12044170659253245,0.0,1756544225589744778
-0.10839753593327921,0.0,1756544225604825803
-0.08973350943425919,0.0,1756544225624913091
-0.08076015849083328,0.0,1756544225648349115
-0.06473328713198813,0.0,1756544225674422909
-0.058259958418789316,0.0,1756544225695109592
-0.05243396257691039,0.0,1756544225702635512
0.0087390536397971,0.0,1756544225726915772
0.00786514827581739,0.0,1756544225748357071
0.04300139469758003,0.0,1756544225772692035
0.03870125522782202,0.0,1756544225789709465
0.03483112970503982,0.0,1756544225794598710
0.07779181922443407,0.0,1756544225822737173
0.07000964707742492,0.0,1756544225842455563
0.09501727791111308,0.0,1756544225860079007
0.08551555012000178,0.0,1756544225875871121
0.0769639951080016,0.0,1756544225897273874
0.0619050083986428,0.0,1756544225923447732
0.05571450755877852,0.0,1756544225941911310
0.051932825381056064,0.0,1756544225965784520
0.04673954284295046,0.0,1756544225986760778
0.042065588558655415,0.0,1756544226016849626
0.03859049040873264,0.0,1756544226020719649
0.03472799566335308,0.0,1756544226048764498
0.06706536904260951,0.0,1756544226066410874
0.06035883213834856,0.0,1756544226097004195
0.054322948924513705,0.0,1756544226098605406
0.03488813011169785,0.0,1756544226118588627
0.03139931710052807,0.0,1756544226135640119
0.01710516529378117,0.0,1756544226161025615
0.01539233310341533,0.0,1756544226178967279
0.013853099793073797,0.0,1756544226198718349
0.011542931047674992,0.0,1756544226224924021
0.010388637942907493,0.0,1756544226238819647
-0.03970094242606665,0.0,1756544226262522284
-0.035730848183459986,0.0,1756544226283866523
-0.03215776336511399,0.0,1756544226302200578
-0.203611150214357,0.0,1756544226324962280
-0.1832500351929213,0.0,1756544226343108132
-0.18329257932593715,0.0,1756544226366770312
-0.16496332139334344,0.0,1756544226392252019
-0.14846698925400909,0.0,1756544226394947031
-0.09912115486485568,0.0,1756544226416434526
-0.08921202173864885,0.0,1756544226441467780
-0.08029081956478397,0.0,1756544226457957365
-0.036641640392670455,0.0,1756544226487337963
0.03274357759145041,0.0,1756544226510470609
0.029469219832305372,0.0,1756544226523982221
0.026522297849074835,0.0,1756544226546414664
0.05585519317312601,0.0,1756544226574913775
0.050269673855813414,0.0,1756544226576529300
0.045242706470232076,0.0,1756544226590827310
0.10919190266098175,0.0,1756544226616068297
0.09827271239488358,0.0,1756544226636353610
0.08844544115539522,0.0,1756544226656351812
0.1465641726642809,0.0,1756544226676897239
0.13190775539785282,0.0,1756544226698334452
0.15695343119057337,0.0,1756544226722416627
0.14125525770310826,0.0,1756544226747911020
0.1918930641006219,0.0,1756544226766830469
0.1727037576905597,0.0,1756544226790294288
0.1554303265837775,0.0,1756544226818255468
0.13988729392539975,0.0,1756544226819433776
0.1791536162697288,0.0,1756544226837767204
0.17248877342655264,0.0,1756544226861985147
0.15523989608389738,0.0,1756544226874265973
0.13971590647550763,0.0,1756544226900753033
0.18858033407821762,0.0,1756544226923381618
0.16972230067039587,0.0,1756544226941531392
0.19315892221341277,0.0,1756544226965218323
0.17374191277128614,0.0,1756544226985631149
0.1938274089027073,0.0,1756544227008799866
0.17444466801243658,0.0,1756544227024632314
0.15700020121119293,0.0,1756544227054779879
0.17448275633313398,0.0,1756544227060197835
0.1570344806998206,0.0,1756544227073569581
0.22589122908535503,0.0,1756544227101674728
0.20330210617681954,0.0,1756544227118018555
0.18296987081083968,0.0,1756544227141019921
0.2565398476341483,0.0,1756544227160085582
0.23088586287073345,0.0,1756544227178643998
0.20779727658366012,0.0,1756544227194484553
0.24547719029520443,0.0,1756544227219974275
0.220929471265684,0.0,1756544227245115821
0.2560829783326929,0.0,1756544227270469305
0.2304746804994236,0.0,1756544227291848126
0.20742721244948126,0.0,1756544227292837815
0.22138023154511768,0.0,1756544227319622990
0.1992422083906059,0.0,1756544227334660334
0.1820869265435225,0.0,1756544227354180188
0.16387823388917025,0.0,1756544227379197307
0.14749041050025322,0.0,1756544227398321996
0.15511947296355538,0.0,1756544227426045475
0.13960752566719986,0.0,1756544227438954785
0.13013594221264724,0.0,1756544227464100933
0.1171221251406772,0.0,1756544227487723207
0.10216517420414628,0.0,1756544227504426468
0.09194918553201216,0.0,1756544227532925465
0.08275426697881094,0.0,1756544227541965215
0.054882955788993465,0.0,1756544227566328235
0.04939466021009412,0.0,1756544227587202701
0.04445519418908471,0.0,1756544227611517501
-0.006392323457347214,0.0,1756544227618389508
-0.005753091111612493,0.0,1756544227641033927
-0.13611166555628154,0.0,1756544227668230617
-0.12250093773785996,0.0,1756544227684476068
-0.296322111658055,0.0,1756544227710501834
-0.2666899004922495,0.0,1756544227731424819
-0.24002091044302457,0.0,1756544227733094850
-0.2558548672818393,0.0,1756544227759767137
-0.2302693805536554,0.0,1756544227775310087
-0.20724244249828985,0.0,1756544227800047300
-0.20031599797648006,0.0,1756544227832626629
-0.18028439817883204,0.0,1756544227839675688
-0.1627712292670251,0.0,1756544227863447105
-0.14649410634032262,0.0,1756544227882010015
-0.13184469570629037,0.0,1756544227905046564
-0.11917198960593492,0.0,1756544227928027954
-0.10725479064534144,0.0,1756544227946489554
-0.06079481585064312,0.0,1756544227962159938
-0.054715334265578806,0.0,1756544227982504544
-0.049243800839020926,0.0,1756544228001783505
-0.014489057432356175,0.0,1756544228029727939
-0.013040151689120557,0.0,1756544228051909697
0.039000645649631085,0.0,1756544228056955176
0.03510058108466798,0.0,1756544228080030615
0.031587048409233175,0.0,1756544228105090037
0.09424375348828576,0.0,1756544228120603905
0.08481874696605296,0.0,1756544228144546714
0.13929211632200592,0.0,1756544228161590673
0.12536290468980532,0.0,1756544228180583371
0.1128266142208248,0.0,1756544228201889409
0.08948109432910537,0.0,1756544228224835997
0.08053298489619483,0.0,1756544228244505415
0.06968662262660621,0.0,1756544228272309854
0.0627179603639456,0.0,1756544228273196459
0.05644616432755104,0.0,1756544228299568230
0.0780531706688253,0.0,1756544228324190917
0.07024631031752973,0.0,1756544228340735382
0.10745552703987499,0.0,1756544228365108054
0.09670997433588749,0.0,1756544228380004273
0.08703897690229874,0.0,1756544228410927058
0.1543607263660197,0.0,1756544228427703621
0.13892465372941773,0.0,1756544228445374834
0.15307294329423174,0.0,1756544228467170544
0.13776564896480856,0.0,1756544228486483742
0.1239890840683277,0.0,1756544228512204550
0.5243707200916862,0.0,1756544228515027869
0.4719305577771282,0.0,1756544228539347620
0.4303321780795056,0.0,1756544228567384676
0.387298960271555,0.0,1756544228585026794
0.36304580216983245,0.0,1756544228611315011
0.32673846099743825,0.0,1756544228629297070
0.2940646148976944,0.0,1756544228649709567
0.2870736297892261,0.0,1756544228670320880
0.2583625664981352,0.0,1756544228692551555
0.2325263098483217,0.0,1756544228693823902
0.22375158674763904,0.0,1756544228718159662
0.20137642807287515,0.0,1756544228734082159
0.14648244150516507,0.0,1756544228759960444
0.13183419735464857,0.0,1756544228775134536
0.11865077761918372,0.0,1756544228795424005
0.09366651771749017,0.0,1756544228823541790
0.08429986594574115,0.0,1756544228840659861
0.08342998416743455,0.0,1756544228861632231
0.07508658358213487,0.0,1756544228893472692
0.06757792522392138,0.0,1756544228899623937
0.07359236394333361,0.0,1756544228924910427
0.06623312754900025,0.0,1756544228943574243
0.06696887189462465,0.0,1756544228966550552
0.060271984705162186,0.0,1756544228987899468
0.054223928009450736,0.0,1756544229012954581
0.048801535208505664,0.0,1756544229013849731
0.024306443457075985,0.0,1756544229038081518
0.021875799111368388,0.0,1756544229053682340
0.019751699271733137,0.0,1756544229076448714
0.016896014328052978,0.0,1756544229096062045
0.01520641289524768,0.0,1756544229115954568
0.013685771605722912,0.0,1756544229140120840
0.012317194445150621,0.0,1756544229160774742
0.015242893168959569,0.0,1756544229189324959
0.013705760359394222,0.0,1756544229210168543
0.026597194763734823,0.0,1756544229230074420
0.023937475287361343,0.0,1756544229246408898
0.0602007628661086,0.0,1756544229269836361
0.05418068657949774,0.0,1756544229289726404
0.048762617921547964,0.0,1756544229311731973
0.06016318355252122,0.0,1756544229334933637
0.0541468651972691,0.0,1756544229336254360
0.04873217867754219,0.0,1756544229359214390
0.058576837283177044,0.0,1756544229376151502
0.052719153554859344,0.0,1756544229399072849
0.04169723970759963,0.0,1756544229423327696
0.03752270148393133,0.0,1756544229447516812
0.06911321194069026,0.0,1756544229473077209
0.06151174481470896,0.0,1756544229505411546
0.06603389969732254,0.0,1756544229531091104
0.059430509727590286,0.0,1756544229552306001
0.10139918062370973,0.0,1756544229559809839
0.09125911319377297,0.0,1756544229581428670
0.08213320187439568,0.0,1756544229597063712
0.10570547868056376,0.0,1756544229625475077
0.09513493081250739,0.0,1756544229641141694
0.0972826759795113,0.0,1756544229669152970
0.08755440838156017,0.0,1756544229683513312
0.07879896754340415,0.0,1756544229710432651
0.07091907078906375,0.0,1756544229712247020
0.038911145538072046,0.0,1756544229737127933
-0.02587978360506963,0.0,1756544229757456901
-0.023291805244562667,0.0,1756544229775498473
-0.0209626247201064,0.0,1756544229806197619
-0.06579384495813319,0.0,1756544229833687032
-0.05921446046231987,0.0,1756544229850614606
-0.053293014416087886,0.0,1756544229857209281
-0.09758545942768247,0.0,1756544229875066897
-0.08782691348491423,0.0,1756544229899880541
-0.15958768592220104,0.0,1756544229921789914
-0.14362891732998095,0.0,1756544229942201933
-0.20223149642418936,0.0,1756544229969311489
-0.18200834678177044,0.0,1756544229989269046
-0.16380751426735,0.0,1756544230015385141
-0.14742676284061498,0.0,1756544230017459299
-0.18927554154391213,0.0,1756544230039592330
-0.17034974697945246,0.0,1756544230059308389
-0.1929791180102775,0.0,1756544230087298486
-0.17368120620924976,0.0,1756544230103838332
-0.19179747533940056,0.0,1756544230127873221
-0.1726177278054605,0.0,1756544230146391037
-0.18087646908848634,0.0,1756544230169480939
-0.16278882217963772,0.0,1756544230188137574
-0.14650993996167394,0.0,1756544230206007578
-0.1277367772942965,0.0,1756544230236696997
-0.11496309956486685,0.0,1756544230249603102
-0.10415352488521155,0.0,1756544230270836918
-0.0937381723966904,0.0,1756544230289088774
-0.08436435515702136,0.0,1756544230318055021
0.04772532404551948,0.0,1756544230322385867
0.04295121575678997,0.0,1756544230334422636
0.08156983197072035,0.0,1756544230357217351
0.07341284877364831,0.0,1756544230385767179
0.06607156389628349,0.0,1756544230409073308
0.08971058533653954,0.0,1756544230436534610
0.08073952680288558,0.0,1756544230438300867
0.11115525392455775,0.0,1756544230461602290
0.10003626750463304,0.0,1756544230478393082
0.09003264075416974,0.0,1756544230502295757
0.14270931058598121,0.0,1756544230531653098
0.1284383795273831,0.0,1756544230540411906
0.15014520751059152,0.0,1756544230566463421
0.13513068675953238,0.0,1756544230585935502
0.12161761808357914,0.0,1756544230613153576
0.13682327257430346,0.0,1756544230636713321
0.12314094531687311,0.0,1756544230638324963
0.12950836053184708,0.0,1756544230659573229
0.11655752447866238,0.0,1756544230679107954
0.10490177203079615,0.0,1756544230709738543
0.10332521932807762,0.0,1756544230731865917
0.09299269739526986,0.0,1756544230743535654
0.13379109631992028,0.0,1756544230768792855
0.12041198668792825,0.0,1756544230786766604
0.11309658182970023,0.0,1756544230812132996
0.10178692364673021,0.0,1756544230812912727
0.0916082312820572,0.0,1756544230831690253
0.08927168508714194,0.0,1756544230857424982
0.08034251778722185,0.0,1756544230876563709
0.07230826600849967,0.0,1756544230896180163
0.08271519914201778,0.0,1756544230922761673
0.074443679227816,0.0,1756544230935687792
0.06964720073382953,0.0,1756544230961919904
0.0626798559838836,0.0,1756544230979072570
0.05641187038549525,0.0,1756544230998532021
0.04304940027992894,0.0,1756544231026132455
0.03874446025193605,0.0,1756544231041222394
0.0371541524681275,0.0,1756544231059697829
0.03343873722131475,0.0,1756544231075514082
0.015485219176591583,0.0,1756544231103287448
0.013934359251349334,0.0,1756544231119712863
0.012540923326214402,0.0,1756544231138050111
0.0021292499063416768,0.0,1756544231158200929
0.0019163249157075092,0.0,1756544231176920228
0.00171797618981421,0.0,1756544231202346383
-0.011318484618232191,0.0,1756544231220699371
-0.010188487712920847,0.0,1756544231241992745
-0.026150945893075598,0.0,1756544231260462115
-0.02353585130376804,0.0,1756544231278708731
-0.021182266173391234,0.0,1756544231306124192
-0.04368459537592994,0.0,1756544231322415978
-0.03931966268844668,0.0,1756544231347164950
-0.08319299246353562,0.0,1756544231376161746
-0.07487369321718206,0.0,1756544231386132130
-0.06738632389546385,0.0,1756544231416826128
-0.10995164858911605,0.0,1756544231423531325
-0.09895648373020445,0.0,1756544231433818309
-0.18393827578192726,0.0,1756544231454982480
-0.16554444820373454,0.0,1756544231475494046
-0.1489900033833611,0.0,1756544231494447936
-0.24069668129149024,0.0,1756544231521396035
-0.21663009642650966,0.0,1756544231541053915
-0.3826347170716572,0.0,1756544231564073594
-0.3443712453644915,0.0,1756544231579997419
-0.30993412082804234,0.0,1756544231598747777
-0.45460407413624815,0.0,1756544231624945499
-0.40914366672262337,0.0,1756544231640943428
-0.4682439216975408,0.0,1756544231664996771
-0.4214195295277867,0.0,1756544231685563230
-0.3793021131630938,0.0,1756544231713253761
-0.4822144476104153,0.0,1756544231721827242
-0.4339930028493738,0.0,1756544231737446415
-0.5447679919245236,0.0,1756544231761934896
-0.4902911927320713,0.0,1756544231778893610
-0.4412668356170253,0.0,1756544231804121890
-0.5999210773101679,0.0,1756544231823376246
-0.539928969579151,0.0,1756544231839018689
-0.5943656591492265,0.0,1756544231864857330
-0.5349290932343038,0.0,1756544231881647586
-0.68554943760653,0.0,1756544231908093584
-0.616994493845877,0.0,1756544231923870520
-0.5552950444612893,0.0,1756544231945332758
-0.5886565596126384,0.0,1756544231966169952
-0.5297909036513746,0.0,1756544231985692726
-0.47744619794147974,0.0,1756544232017632335
-0.5629783481803048,0.0,1756544232032863205
-0.5066805133622744,0.0,1756544232034021369
-0.45601246202604695,0.0,1756544232052128089
-0.7362757885135862,0.0,1756544232082283199
-0.6626482096622276,0.0,1756544232094111420
-0.8017337417324379,0.0,1756544232118332831
-0.7215603675591942,0.0,1756544232140986804
-0.6494043308032748,0.0,1756544232157712494
-0.7568895982847395,0.0,1756544232186434300
-0.6812006384562656,0.0,1756544232199502519
-0.745595183781826,0.0,1756544232221992250
-0.6710356654036435,0.0,1756544232241287372
-0.7638918963704755,0.0,1756544232269336649
-0.687502706733428,0.0,1756544232284088915
-0.8919627673195059,0.0,1756544232312629969
-0.8027664905875553,0.0,1756544232319643530
-0.7224926867811002,0.0,1756544232342609992
-0.8724580570205359,0.0,1756544232368043922
-0.7852122513184824,0.0,1756544232379459790
-0.9258500061887829,0.0,1756544232408546373
-0.8332650055699046,0.0,1756544232425418254
-0.7499385050129141,0.0,1756544232450257160
-0.7757037324982125,0.0,1756544232473389764
-0.6981333592483913,0.0,1756544232474909349
-0.6283200233235522,0.0,1756544232495255964
-0.9827881354359377,0.0,1756544232521180274
-0.8845093218923439,0.0,1756544232541801365
-0.9649906955997702,0.0,1756544232568028873
-0.8684916260397932,0.0,1756544232587812056
-0.7816424634358139,0.0,1756544232610389186
-1.0318102250568892,0.0,1756544232614949320
-0.9286296249578078,0.0,1756544232635261156
-1.0737935625016766,0.0,1756544232655212107
-0.966414206251509,0.0,1756544232672057374
-0.8697727856263581,0.0,1756544232692118244
-1.0501913584693212,0.0,1756544232714997947
-0.9451722226223891,0.0,1756544232748880130
-1.0082291344836052,0.0,1756544232755818370
-0.9074079698843007,0.0,1756544232793073165
-0.8166671728958707,0.0,1756544232794219536
-0.8108025678647487,0.0,1756544232818490209
-0.7297227498850201,0.0,1756544232843537899
-0.8099430618963666,0.0,1756544232864969990
-0.7289487557067299,0.0,1756544232886201412
-0.6560538801360569,0.0,1756544232897939108
-0.6572023109215345,0.0,1756544232931552518
-0.5914808517137274,0.0,1756544232948496367
-0.5452406518117967,0.0,1756544232969766109
-0.49071658663061707,0.0,1756544233001879158
-0.4416449279675554,0.0,1756544233001920164
-0.36816946459951105,0.0,1756544233023330390
-0.33135251813955996,0.0,1756544233042302692
-0.27862420218073075,0.0,1756544233063945277
-0.2507617819626577,0.0,1756544233087514343
-0.22568560376639193,0.0,1756544233109904649
-0.21222509415911248,0.0,1756544233139835117
-0.19100258474320123,0.0,1756544233141291344
-0.20116855789239804,0.0,1756544233162863874
-0.18105170210315824,0.0,1756544233175593269
-0.16294653189284242,0.0,1756544233196877453
-0.10379485633057856,0.0,1756544233224780463
-0.0934153706975207,0.0,1756544233238701030
-0.039916955989221646,0.0,1756544233265358646
-0.03592526039029948,0.0,1756544233286915213
-0.032332734351269536,0.0,1756544233311929912
-0.029099460916142583,0.0,1756544233313221238
0.085639429850568,0.0,1756544233340165939
0.0770754868655112,0.0,1756544233357429174
0.1626598990078834,0.0,1756544233386591482
0.14639390910709507,0.0,1756544233405823905
0.19991717756213045,0.0,1756544233427567625
0.17992545980591743,0.0,1756544233450240652
0.2365137619466296,0.0,1756544233455596094
0.21286238575196664,0.0,1756544233472137699
0.19157614717677,0.0,1756544233493384896
0.28588718747051456,0.0,1756544233527913944
0.25729883261304826,0.0,1756544233548089511
0.33545405108643656,0.0,1756544233564207815
0.30190864597779293,0.0,1756544233590406736
0.2717177813800136,0.0,1756544233607056942
0.32284803080664465,0.0,1756544233628940626
0.2905638639171249,0.0,1756544233654166550
0.2615074775254124,0.0,1756544233655634434
0.4494643509325782,0.0,1756544233677619784
0.4045179158393204,0.0,1756544233697094272
0.5145043084943052,0.0,1756544233722160806
0.46305387764487466,0.0,1756544233743366592
0.632829596348465,0.0,1756544233770303059
0.5695466367136185,0.0,1756544233781513942
0.6568780972090833,0.0,1756544233805028635
0.591190287488175,0.0,1756544233824117868
0.5320712587393576,0.0,1756544233847220480
0.6517447316034015,0.0,1756544233874775043
0.5865702584430614,0.0,1756544233875899963
0.5279127602656687,0.0,1756544233913696809
2.6098041547617377,0.0,1756544233917745189
2.348823909185729,0.0,1756544233943975626
2.3328341191494335,0.0,1756544233964496352
2.0995507072344903,0.0,1756544233979169440
1.8895956365110413,0.0,1756544233999847591
1.8027430053708176,0.0,1756544234023252442
1.6224687048337358,0.0,1756544234040933533
1.6217649726845083,0.0,1756544234068230044
1.4595884754160575,0.0,1756544234084027113
1.3136296278744517,0.0,1756544234109573367
1.337808615422294,0.0,1756544234132767851
1.2040277538800646,0.0,1756544234147475658
1.1566097177517143,0.0,1756544234170365814
1.040948745976543,0.0,1756544234185625718
0.9368538713788886,0.0,1756544234206606460
0.9058124032551181,0.0,1756544234229207388
0.8152311629296063,0.0,1756544234254636876
0.7337080466366457,0.0,1756544234258199383
0.7994851848834617,0.0,1756544234282649658
0.7195366663951155,0.0,1756544234296168881
0.8073856947184884,0.0,1756544234320329531
0.7266471252466395,0.0,1756544234342015273
0.806698703273846,0.0,1756544234364268608
0.7260288329464614,0.0,1756544234380668701
0.805892984045349,0.0,1756544234404771760
0.7252007807298306,0.0,1756544234428394367
0.6526807026568476,0.0,1756544234444259788
0.708524386538811,0.0,1756544234470725919
0.6376706108781313,0.0,1756544234497481673
0.8465853480046017,0.0,1756544234511754801
0.7619268132041416,0.0,1756544234518435579
0.6857341318837274,0.0,1756544234538595508
0.7441413716862151,0.0,1756544234562113174
0.6697272345175936,0.0,1756544234581548152
0.7920277934105104,0.0,1756544234605147799
0.7128250140694594,0.0,1756544234626736993
0.6415424493026184,0.0,1756544234650256488
0.8518578440332247,0.0,1756544234670170950
0.7666720596299023,0.0,1756544234688199406
0.690004853666912,0.0,1756544234710771730
0.6210043683002208,0.0,1756544234711820957
0.7485934575965763,0.0,1756544234741368359
0.7871877044598328,0.0,1756544234760464689
0.7084689340138495,0.0,1756544234777140920
0.6376220406124645,0.0,1756544234799077828
0.6490799164822729,0.0,1756544234834792240
0.5841719248340457,0.0,1756544234839948813
0.5821650001517332,0.0,1756544234864462653
0.5239485001365599,0.0,1756544234882584213
0.47155365012290396,0.0,1756544234903273140
0.5237553879887172,0.0,1756544234922885670
0.47137984918984555,0.0,1756544234940209096
0.5462483369962476,0.0,1756544234966038451
0.49154465194198704,0.0,1756544234985581513
0.44239018674778835,0.0,1756544235000396054
0.44574405896538793,0.0,1756544235027002105
0.40116965306884916,0.0,1756544235041932858
0.42622913673318163,0.0,1756544235063541581
0.38360622305986347,0.0,1756544235081894316
0.3452456007538771,0.0,1756544235105769875
0.37170398709107133,0.0,1756544235129485256
0.33453358838196423,0.0,1756544235149324878
0.35255827492809194,0.0,1756544235170679611
0.31730244743528274,0.0,1756544235194108475
0.2855722026917545,0.0,1756544235194213554
0.30902310446801573,0.0,1756544235223652851
0.27812079402121415,0.0,1756544235234853555
0.2927895855036357,0.0,1756544235256790136
0.26351062695327215,0.0,1756544235278256989
0.2371558037759569,0.0,1756544235303770861
0.232824625511145,0.0,1756544235327776041
0.2095421629600305,0.0,1756544235347852824
0.261464139075658,0.0,1756544235366586172
0.23531380847180047,0.0,1756544235393025416
0.21178242762462043,0.0,1756544235395699989
0.22637508801481268,0.0,1756544235418191927
0.2037375792133314,0.0,1756544235439710415
0.19935461390938905,0.0,1756544235460762635
0.17941810795325241,0.0,1756544235483430707
0.1614762971579272,0.0,1756544235506472466
0.1792736424095794,0.0,1756544235527241934
0.16134627816862146,0.0,1756544235546660398
0.18520487907971322,0.0,1756544235570740960
0.1666843911717419,0.0,1756544235593829770
0.15001595205456772,0.0,1756544235601794767
0.17206443405260316,0.0,1756544235622862204
0.15485772256533292,0.0,1756544235638848821
0.17843431040458288,0.0,1756544235661888283
0.16059087936412458,0.0,1756544235676889214
0.14453179142771214,0.0,1756544235698163867
0.16144076671488883,0.0,1756544235721632783
0.1452957050449527,0.0,1756544235742248108
0.13076613454045743,0.0,1756544235762795231
0.14149454592450889,0.0,1756544235789219721
0.127345091332058,0.0,1756544235804815882
0.1231755282420247,0.0,1756544235831838658
0.11085797541782223,0.0,1756544235842821169
0.0918141312368914,0.0,1756544235865566003
0.08263271811320226,0.0,1756544235883646978
0.07436944630188204,0.0,1756544235909519035
0.04895703306522124,0.0,1756544235940194361
0.04406132975869912,0.0,1756544235941778437
0.026844383711462545,0.0,1756544235965796711
0.02415994534031629,0.0,1756544235985011244
0.021739218506221736,0.0,1756544236004096509
0.024707235116897097,0.0,1756544236027443527
0.022235163983042417,0.0,1756544236049205496
0.009780535961447021,0.0,1756544236075672571
0.008802482365302318,0.0,1756544236077225371
0.007922234128772087,0.0,1756544236099129840
-0.010009137820597164,0.0,1756544236130254297
-0.00900870548616015,0.0,1756544236155946928
-0.008107834937544136,0.0,1756544236157389781
-0.03487690843008255,0.0,1756544236182790261
-0.031389217587074296,0.0,1756544236196011841
-0.10928471280641433,0.0,1756544236220211889
-0.0983562415257729,0.0,1756544236239302214
-0.14537336053741737,0.0,1756544236264415738
-0.13083602448367562,0.0,1756544236283015895
-0.13921537244386115,0.0,1756544236310392382
-0.12529383519947504,0.0,1756544236329402080
-0.11276445167952753,0.0,1756544236331455693
-0.21008241014872697,0.0,1756544236356228282
-0.18907416913385428,0.0,1756544236377795787
-0.17016675222046884,0.0,1756544236401225279
-0.20046321600022482,0.0,1756544236432742368
-0.18042894567749398,0.0,1756544236452306027
-0.5893106850689581,0.0,1756544236456615949
-0.5303796165620623,0.0,1756544236473127904
-0.4773416549058561,0.0,1756544236493180945
-0.5625668504935828,0.0,1756544236519771474
-0.5063146373422764,0.0,1756544236545084986
-0.7677750419960463,0.0,1756544236569031757
-0.6909975377964417,0.0,1756544236586071625
-0.8333395064564071,0.0,1756544236614344105
-0.7500055558107664,0.0,1756544236615454887
-0.6750050002296898,0.0,1756544236633831925
-0.8637319643031967,0.0,1756544236658287180
-0.777358767872877,0.0,1756544236677117202
-0.6996228910855894,0.0,1756544236699238486
-0.9488734137888206,0.0,1756544236728492380
-0.8539901903625414,0.0,1756544236755451921
-1.2871198089027924,0.0,1756544236774636682
-1.1584078280125132,0.0,1756544236790273479
-1.0425670452112619,0.0,1756544236795484569
-1.443806451409499,0.0,1756544236815045716
-1.299425806268549,0.0,1756544236833737921
-1.8562206975899942,0.0,1756544236860165501
-1.6705986278309948,0.0,1756544236878835321
-1.5035387650478953,0.0,1756544236901407846
-2.1549370100170426,0.0,1756544236918879003
-1.9394463326771305,0.0,1756544236945972964
-2.003412575441334,0.0,1756544236968572854
-1.8030713178972007,0.0,1756544236983205438
-1.6227641861074806,0.0,1756544237005388171
-1.9481570057104407,0.0,1756544237030949575
-1.7533413051393967,0.0,1756544237050030200
-1.9548608819214959,0.0,1756544237055228709
-1.7593747937293462,0.0,1756544237074619647
-1.5834373143564116,0.0,1756544237095858262
-1.8020075987930775,0.0,1756544237119981973
-1.6218098679130528,0.0,1756544237139908021
-1.894651831202622,0.0,1756544237164557428
-1.7051866480823599,0.0,1756544237182104726
-1.534667983274124,0.0,1756544237203009658
-1.5699594617516468,0.0,1756544237229420217
-1.4129635155764821,0.0,1756544237247532540
-1.6957417520825542,0.0,1756544237268017413
-1.5261675768742988,0.0,1756544237286344036
-1.373550819186869,0.0,1756544237312920794
-1.7262570882158617,0.0,1756544237317605024
-1.5536309127152956,0.0,1756544237338828488
-1.5268134493947376,0.0,1756544237365803761
-1.374132104455264,0.0,1756544237377348431
-1.2367188940097376,0.0,1756544237405964449
-1.260772019907355,0.0,1756544237428366579
-1.1346948179166196,0.0,1756544237445568122
-1.0875714074258118,0.0,1756544237476103329
-0.9788142666832307,0.0,1756544237477251992
-0.8809328400149077,0.0,1756544237495066939
-0.9886123295430624,0.0,1756544237517777167
