loc_acc_x,loc_acc_y,stamp
-1.7521416321016634e-06,0.0,1759204127931997455
1.920029175967169e-06,0.0,1759204127932097445
-1.9984000641344534e-06,0.0,1759204127933284545
1.8705179231408131e-06,0.0,1759204127953068132
2.5042794240946786e-06,0.0,1759204127972183553
1.4012578459254908e-05,0.0,1759204127993778957
1.9681235910651254e-06,0.0,1759204128013118522
1.3014563080516907e-05,0.0,1759204128033638271
-5.952408590589077e-08,0.0,1759204128053032232
-9.212722338854872e-07,0.0,1759204128072367259
4.087372449477687e-06,0.0,1759204128094961627
6.253709980282049e-07,0.0,1759204128112175405
3.21349665720937e-06,0.0,1759204128134733831
-1.741766267517304e-07,0.0,1759204128152808102
-3.897747560874799e-06,0.0,1759204128173084032
8.138515808291403e-06,0.0,1759204128193481779
-3.17134270198198e-06,0.0,1759204128213713833
-3.6832485375609437e-06,0.0,1759204128232591295
-2.5047634951871697e-06,0.0,1759204128254189226
-3.1620314393917127e-06,0.0,1759204128272268102
1.9281856918961095e-06,0.0,1759204128294748124
-1.2352347163930667e-06,0.0,1759204128311987916
1.622449351146323e-06,0.0,1759204128333908734
-1.5287246355064526e-06,0.0,1759204128352140446
-4.948704622169479e-06,0.0,1759204128373018834
-1.4075760595600696e-05,0.0,1759204128393361093
-5.294202828825098e-06,0.0,1759204128413826270
-4.1719472754264865e-06,0.0,1759204128432740020
-4.451921097740801e-06,0.0,1759204128454504430
-3.2983431607274803e-06,0.0,1759204128472294238
-6.771540656919165e-06,0.0,1759204128494422767
-2.4042328860266725e-06,0.0,1759204128512010750
-5.182883035137857e-06,0.0,1759204128534688834
-9.69877902564843e-07,0.0,1759204128552689123
6.362314862498975e-07,0.0,1759204128573342140
-4.006695104940648e-06,0.0,1759204128593619728
2.728677601993059e-07,0.0,1759204128613342875
-3.825258433322727e-06,0.0,1759204128633057417
4.3517364488228115e-07,0.0,1759204128653549028
1.3124365384614808e-06,0.0,1759204128672137589
-6.656819774647296e-06,0.0,1759204128693613292
1.6254764377940721e-06,0.0,1759204128713279697
2.038055914005906e-06,0.0,1759204128732482470
1.264729820776293e-06,0.0,1759204128754348582
1.783360694075547e-06,0.0,1759204128772318786
-1.948209500602865e-06,0.0,1759204128794378888
2.4622384836155853e-07,0.0,1759204128812790188
2.6445252740437694e-06,0.0,1759204128833639697
-2.693406745826194e-07,0.0,1759204128853830433
2.430320478939279e-06,0.0,1759204128873703610
-6.090574686300737e-06,0.0,1759204128893197948
1.7446648640637333e-06,0.0,1759204128913019139
-5.911015973860047e-06,0.0,1759204128933186052
2.2066860955067024e-06,0.0,1759204128953157227
2.5677326924179286e-06,0.0,1759204128972247890
-9.264593010145851e-07,0.0,1759204128994169685
1.0099781658029004e-06,0.0,1759204129012493123
-8.11528631897253e-07,0.0,1759204129034797439
1.2828972887534808e-06,0.0,1759204129052549289
3.502393885389722e-06,0.0,1759204129073147864
-4.252202439752525e-06,0.0,1759204129093117664
2.7192164368193105e-06,0.0,1759204129113105051
2.9542833450534193e-06,0.0,1759204129132324842
2.175854104318858e-06,0.0,1759204129154735715
2.5412517706135452e-06,0.0,1759204129172260128
-6.328562820907299e-07,0.0,1759204129195080812
2.3997924274819194e-06,0.0,1759204129212402641
9.920647008562812e-06,0.0,1759204129234561470
4.04481901881855e-06,0.0,1759204129252137800
1.787108855735082e-06,0.0,1759204129273833930
8.916334050652819e-06,0.0,1759204129293229795
2.262052823035385e-06,0.0,1759204129313282366
7.087778577064701e-07,0.0,1759204129331978397
1.8229205449913847e-06,0.0,1759204129354300729
1.8936259175917527e-07,0.0,1759204129372118239
1.2129558058423566e-05,0.0,1759204129393343444
-5.287545928607654e-07,0.0,1759204129413133455
-1.3439862972286992e-06,0.0,1759204129432437757
-3.434748702967425e-07,0.0,1759204129454003108
-1.2599206038355305e-06,0.0,1759204129472434665
4.120344306873211e-06,0.0,1759204129494250901
6.277129777489371e-07,0.0,1759204129512040440
3.2772986213354042e-06,0.0,1759204129534812181
-3.5974787766430894e-07,0.0,1759204129552114534
-3.9859147485100264e-06,0.0,1759204129573573866
-1.2640404646424176e-05,0.0,1759204129593436197
-4.508849656463129e-06,0.0,1759204129613547997
8.978813763094811e-06,0.0,1759204129633141544
-1.6534279834757594e-06,0.0,1759204129652853980
-2.2186384444406443e-06,0.0,1759204129672282028
3.149067395043062e-06,0.0,1759204129694739671
-2.178181694501078e-07,0.0,1759204129712216747
-3.5553047887524207e-06,0.0,1759204129733561015
7.417962706473162e-07,0.0,1759204129753102056
-3.0805445169175375e-06,0.0,1759204129773543740
8.967956431040741e-06,0.0,1759204129793198555
-2.3390255708057174e-06,0.0,1759204129813015457
8.477172576630148e-06,0.0,1759204129833467917
-3.145077792959345e-06,0.0,1759204129853452411
-4.209420542741502e-06,0.0,1759204129872397455
1.1285478770291953e-06,0.0,1759204129895076241
-3.6415238174937453e-06,0.0,1759204129911972293
-4.987091727377075e-07,0.0,1759204129934084742
-4.123672014545261e-06,0.0,1759204129952649581
-5.249396053693178e-06,0.0,1759204129973323579
1.0155300737385467e-06,0.0,1759204129993448044
-1.6506776398001541e-06,0.0,1759204130012210224
9.952105041772416e-07,0.0,1759204130034028897
-4.113433985843471e-06,0.0,1759204130053577600
-4.8409544158841485e-06,0.0,1759204130072140477
5.334421638577711e-06,0.0,1759204130093685728
-4.8072882364048265e-06,0.0,1759204130112986609
5.118904970132459e-06,0.0,1759204130133373683
-5.108881779155242e-06,0.0,1759204130153171978
-5.336954992573933e-06,0.0,1759204130172287807
9.54453630978213e-06,0.0,1759204130194904601
8.318535986404298e-07,0.0,1759204130211956257
7.75582677468885e-06,0.0,1759204130234477490
-8.797706815273977e-07,0.0,1759204130252522646
-1.0280238269434129e-05,0.0,1759204130272924820
1.910368274215592e-05,0.0,1759204130293684580
-9.924866215332137e-06,0.0,1759204130313042071
1.7409037408235952e-05,0.0,1759204130334188361
-1.3072557567941727e-05,0.0,1759204130353156689
-1.3882770308918405e-05,0.0,1759204130372266072
-6.448507525927541e-07,0.0,1759204130394728183
-7.780512127663261e-06,0.0,1759204130412276041
-4.524568011628927e-07,0.0,1759204130434222881
-7.671141360534016e-06,0.0,1759204130452541654
-1.559242260993316e-05,0.0,1759204130473451696
1.3888744361709745e-05,0.0,1759204130493112517
-1.2200566244581936e-05,0.0,1759204130512976080
1.3995437648468786e-05,0.0,1759204130533650403
-1.3685371510394143e-05,0.0,1759204130553178106
-1.555443544791795e-05,0.0,1759204130572262240
-2.3833445096427956e-06,0.0,1759204130594903792
-1.270072915959777e-05,0.0,1759204130612458119
-5.0102221052175925e-06,0.0,1759204130634942896
-1.3750766663598956e-05,0.0,1759204130652269763
-1.588672065693498e-05,0.0,1759204130673631643
-1.2122790963390969e-05,0.0,1759204130693339168
-1.226736921879789e-05,0.0,1759204130712736467
-1.0015019305005694e-05,0.0,1759204130734123753
-1.1528961496516884e-05,0.0,1759204130753229210
-1.0920006588822453e-05,0.0,1759204130772276332
1.4459604403167656e-05,0.0,1759204130793965378
-9.056788317637587e-06,0.0,1759204130813732446
1.6172455440936416e-05,0.0,1759204130833529892
-9.617270967309926e-06,0.0,1759204130853144381
-1.0445753305226199e-05,0.0,1759204130872724129
1.3344142064654535e-06,0.0,1759204130894388036
-4.7351719472479765e-06,0.0,1759204130912761032
1.580672960642534e-06,0.0,1759204130934030358
-4.8054490595824766e-06,0.0,1759204130952508068
-1.1950109952531073e-05,0.0,1759204130973197604
1.2550493848872093e-05,0.0,1759204130993602644
-1.0552080368994884e-05,0.0,1759204131013148228
1.2518279374233074e-05,0.0,1759204131033499882
-1.1575970918881445e-05,0.0,1759204131053018018
-1.2137168564070041e-05,0.0,1759204131072135003
-1.0630749283220374e-06,0.0,1759204131094108458
-6.518401809671675e-06,0.0,1759204131112440920
-4.771122634995548e-07,0.0,1759204131134117344
-6.420073142977304e-06,0.0,1759204131152135611
-1.2684501839776399e-05,0.0,1759204131173383096
1.0436813312894727e-05,0.0,1759204131193784356
-1.13941418692543e-05,0.0,1759204131212921074
1.0163340135969504e-05,0.0,1759204131233426643
-1.1823057096049839e-05,0.0,1759204131253232980
-1.2261265214460168e-05,0.0,1759204131272233508
-2.0256780998095884e-06,0.0,1759204131294630047
-1.0791778614924804e-05,0.0,1759204131312011060
-2.3059348076508423e-06,0.0,1759204131334142113
-1.093940164694661e-05,0.0,1759204131352131309
-1.3342559417204362e-05,0.0,1759204131373473563
-6.542965681621696e-07,0.0,1759204131393106450
-5.547291148077508e-06,0.0,1759204131412177847
6.93234021460465e-06,0.0,1759204131434452902
-1.2769430721329022e-05,0.0,1759204131452862146
-1.3662953193260666e-05,0.0,1759204131472436583
1.1805814463804686e-05,0.0,1759204131493523869
-1.1984568468472787e-05,0.0,1759204131513360193
8.194937083171966e-06,0.0,1759204131533729944
-1.2654318932263933e-05,0.0,1759204131553553881
-1.2923107518964685e-05,0.0,1759204131572650410
-3.4383437618849144e-06,0.0,1759204131594706883
-7.983264805646069e-06,0.0,1759204131612438789
-2.708950175235719e-06,0.0,1759204131634307723
-7.428472389202166e-06,0.0,1759204131652530492
-1.2536583759752333e-05,0.0,1759204131673778745
7.627306066830908e-06,0.0,1759204131693629145
-1.0574645709604135e-05,0.0,1759204131712838566
7.5606036419970315e-06,0.0,1759204131733651866
-1.1128396497903131e-05,0.0,1759204131753207689
-1.1371278142672055e-05,0.0,1759204131772400336
-2.5602616802153443e-06,0.0,1759204131794540843
-6.826324531506508e-06,0.0,1759204131812460277
-2.0210300824836883e-06,0.0,1759204131834639168
-6.571608072686908e-06,0.0,1759204131852505171
-1.1374647636412065e-05,0.0,1759204131873757387
7.565843453324722e-06,0.0,1759204131893535167
-9.177259076469019e-06,0.0,1759204131913168025
8.059081349323774e-06,0.0,1759204131933354362
-9.562811068450243e-06,0.0,1759204131952863966
-1.0602184916124969e-05,0.0,1759204131972611326
-1.6600324875872911e-06,0.0,1759204131994544614
-8.272638705736044e-06,0.0,1759204132012215931
-3.2490136854501194e-06,0.0,1759204132034649711
-8.780461444831793e-06,0.0,1759204132052453676
-1.0245914582185788e-05,0.0,1759204132073271840
-3.837804454145012e-07,0.0,1759204132093241244
-7.643770623481202e-06,0.0,1759204132112874589
3.623499117200206e-07,0.0,1759204132133895345
-7.373414283457323e-06,0.0,1759204132153426049
-8.382663914278028e-06,0.0,1759204132172002787
7.1171853758105786e-06,0.0,1759204132193650881
-8.126833032610547e-06,0.0,1759204132213069080
7.1684846742318585e-06,0.0,1759204132233673144
-8.785911860992941e-06,0.0,1759204132253107680
-9.03781840649397e-06,0.0,1759204132272426050
-1.5837509589899462e-06,0.0,1759204132294407743
-5.258658777978486e-06,0.0,1759204132312277001
-1.2576788403466111e-06,0.0,1759204132334380321
-5.121581188381225e-06,0.0,1759204132352203699
-9.259166852697044e-06,0.0,1759204132373365596
6.311088677104367e-06,0.0,1759204132393485215
-7.968415076980784e-06,0.0,1759204132412923220
6.2475646729168995e-06,0.0,1759204132433719164
-8.535211174384478e-06,0.0,1759204132453386157
-8.758916893121188e-06,0.0,1759204132472520825
-1.7682138207996364e-06,0.0,1759204132494532491
-5.2421459132374066e-06,0.0,1759204132512042419
-1.4731641662993812e-06,0.0,1759204132534349015
-5.045841947086672e-06,0.0,1759204132552426815
-8.952372881050152e-06,0.0,1759204132573239894
-1.4990962623095592e-05,0.0,1759204132593550646
-8.148358982643762e-06,0.0,1759204132612778867
-1.3437719919796568e-05,0.0,1759204132633213843
-6.0613481166369226e-06,0.0,1759204132653195890
-4.705321639098152e-06,0.0,1759204132672566626
-7.120450158045828e-06,0.0,1759204132694719348
-3.894200945912427e-06,0.0,1759204132712461960
-2.5355200460204256e-06,0.0,1759204132734061473
-3.956080935442701e-06,0.0,1759204132753584318
-1.9009629371164175e-06,0.0,1759204132773756779
-5.115308501046836e-06,0.0,1759204132793585349
-3.0847639588276634e-06,0.0,1759204132812179369
-4.502379276434794e-06,0.0,1759204132834109863
-2.2697575342067186e-06,0.0,1759204132851933935
2.0265128860971474e-08,0.0,1759204132872957410
-5.579104335792068e-06,0.0,1759204132894571888
7.915638163050617e-07,0.0,1759204132913131316
1.1266451807043006e-06,0.0,1759204132932409264
6.069655120449361e-07,0.0,1759204132954196784
1.0051915045800325e-06,0.0,1759204132972309842
-1.583333939044998e-06,0.0,1759204132994217982
6.414667282662099e-09,0.0,1759204133012384885
1.6809143957594551e-06,0.0,1759204133033418275
-3.5757983717508806e-07,0.0,1759204133053524288
1.5716071702749953e-06,0.0,1759204133073140545
-4.07203211431768e-06,0.0,1759204133093706908
1.5380868779895317e-06,0.0,1759204133113075403
-3.7009368925592213e-06,0.0,1759204133134004125
2.2457039815566593e-06,0.0,1759204133152845889
2.425690211267946e-06,0.0,1759204133172158262
-8.8223919001691e-08,0.0,1759204133194329414
1.230637631930573e-06,0.0,1759204133212559658
2.691550021035034e-06,0.0,1759204133233223868
6.775373135290602e-07,0.0,1759204133253418269
2.3476653290247455e-06,0.0,1759204133273482520
-3.1069684351696218e-06,0.0,1759204133293691494
2.0712864223247516e-06,0.0,1759204133313111794
2.4440681434530934e-06,0.0,1759204133332613626
1.6453111823588953e-06,0.0,1759204133354148373
2.1166979942209055e-06,0.0,1759204133372361469
-8.102624310219984e-06,0.0,1759204133394644898
6.767117240531966e-07,0.0,1759204133412405737
-6.17486324757021e-06,0.0,1759204133434605617
2.4957808858429264e-06,0.0,1759204133452769275
5.603162633822628e-06,0.0,1759204133473241079
-7.73778593517088e-06,0.0,1759204133493904589
-9.556453210352715e-07,0.0,1759204133512145316
6.2588386878638435e-06,0.0,1759204133533252249
3.2847724710046723e-06,0.0,1759204133554457572
5.710553856702564e-06,0.0,1759204133572067910
-1.7467115263052426e-05,0.0,1759204133593168091
5.449696042637045e-06,0.0,1759204133613294583
-1.6716749707864153e-05,0.0,1759204133634000605
7.88219268538854e-06,0.0,1759204133653398088
8.811326893676186e-06,0.0,1759204133672485479
-1.9069217937263884e-06,0.0,1759204133694522326
4.0089646223558155e-06,0.0,1759204133712377151
-1.692516711683985e-06,0.0,1759204133734368795
4.5112414441642965e-06,0.0,1759204133752261291
1.1016227992313413e-05,0.0,1759204133773524592
-1.249501360408372e-05,0.0,1759204133793393369
9.009102654820802e-06,0.0,1759204133813071208
-1.2294350578682837e-05,0.0,1759204133833593309
1.0088473049983546e-05,0.0,1759204133853328650
1.0696300816940087e-05,0.0,1759204133872418254
4.3779595833825945e-07,0.0,1759204133894470054
5.861122645825394e-06,0.0,1759204133911971047
4.509781376208525e-07,0.0,1759204133934537867
6.112714592060375e-06,0.0,1759204133952207636
1.2199867839450818e-05,0.0,1759204133972896115
-9.504625227733712e-06,0.0,1759204133993221712
9.844628747265e-06,0.0,1759204134013598855
-1.0966045507437367e-05,0.0,1759204134033539158
9.581848148761322e-06,0.0,1759204134053400782
1.014757933238865e-05,0.0,1759204134072264201
4.33225406894507e-07,0.0,1759204134094073529
8.392285071885499e-06,0.0,1759204134112291201
8.815967928775841e-07,0.0,1759204134135403146
9.792185313174291e-06,0.0,1759204134152062298
1.2116003888298221e-05,0.0,1759204134173311020
4.55787249337644e-07,0.0,1759204134193276568
8.923358353183245e-06,0.0,1759204134213597146
-8.837578901212835e-07,0.0,1759204134233744476
8.430843346936579e-06,0.0,1759204134253115838
9.612467783155384e-06,0.0,1759204134272122454
-8.81062047438199e-06,0.0,1759204134293766127
9.647874784028822e-06,0.0,1759204134313002417
-8.673715261190284e-06,0.0,1759204134333503943
9.876202608928812e-06,0.0,1759204134353467049
1.0266009254315338e-05,0.0,1759204134372361044
1.197002467677426e-05,0.0,1759204134394045407
1.0434757681436413e-05,0.0,1759204134412460059
1.0041090055472337e-05,0.0,1759204134434620510
8.507836139037756e-06,0.0,1759204134452299816
7.050399860887467e-06,0.0,1759204134473384935
8.330544808800407e-06,0.0,1759204134493435617
5.684813921331545e-06,0.0,1759204134513095189
6.920484898719386e-06,0.0,1759204134533908106
4.306360598054142e-06,0.0,1759204134553326938
3.7296671275385896e-06,0.0,1759204134572146556
-6.145891192585548e-06,0.0,1759204134594521483
1.827519988518202e-06,0.0,1759204134611979010
-4.718427324682801e-06,0.0,1759204134634411381
2.4875522367682077e-07,0.0,1759204134652580863
5.868906849503776e-06,0.0,1759204134673407712
-1.1137465442743072e-05,0.0,1759204134693409882
4.702052256415358e-06,0.0,1759204134713243313
-1.197318072482608e-05,0.0,1759204134733842566
5.551722925314384e-06,0.0,1759204134753851807
7.093602369401283e-06,0.0,1759204134772612829
8.767485056040268e-06,0.0,1759204134794898726
6.8898098207454815e-06,0.0,1759204134812648130
7.1117681247456704e-06,0.0,1759204134834022078
5.354336228704432e-06,0.0,1759204134851988510
4.405923341676879e-06,0.0,1759204134873304716
5.589321573626921e-06,0.0,1759204134893424606
4.310972985968477e-06,0.0,1759204134912405247
4.567071585810912e-06,0.0,1759204134934509805
3.3101181909329026e-06,0.0,1759204134952243458
2.0607284274625735e-06,0.0,1759204134973408092
4.722654764402611e-06,0.0,1759204134993480822
1.6329441202918698e-06,0.0,1759204135013167894
4.088443627992808e-06,0.0,1759204135033814650
8.480630791456952e-07,0.0,1759204135052861077
5.600445523994081e-07,0.0,1759204135072414514
1.7024528547580279e-06,0.0,1759204135094168778
8.39586878804643e-07,0.0,1759204135112035505
1.3827335277240413e-06,0.0,1759204135134423054
5.237932387227601e-07,0.0,1759204135152480247
-3.99169362279481e-07,0.0,1759204135172863108
2.253953857720513e-06,0.0,1759204135193838884
-4.6098159626463475e-07,0.0,1759204135213419496
2.1537449839716417e-06,0.0,1759204135233444811
-6.850967750138827e-07,0.0,1759204135252887499
-8.104772938844074e-07,0.0,1759204135272366047
3.813434759224693e-07,0.0,1759204135294516356
-3.1591188975206165e-07,0.0,1759204135312281851
3.183036089938899e-07,0.0,1759204135334280857
-3.8173236047801103e-07,0.0,1759204135352662564
-1.162612074673094e-06,0.0,1759204135373204723
-1.9378334672333903e-05,0.0,1759204135393216328
-2.057473574198422e-06,0.0,1759204135412960899
-1.8277994454161953e-05,0.0,1759204135433504570
4.359976025258238e-07,0.0,1759204135453078863
2.4382298242818472e-06,0.0,1759204135472558036
-5.673778357521355e-06,0.0,1759204135494640095
1.7302979119704125e-06,0.0,1759204135512455303
-2.8463858257608373e-06,0.0,1759204135534087435
3.2712819466092016e-06,0.0,1759204135552179041
5.2654404558774104e-06,0.0,1759204135573390123
7.361683871448563e-06,0.0,1759204135593300076
5.940646140002609e-06,0.0,1759204135612636076
7.559833254205556e-06,0.0,1759204135635530820
3.4763894642492426e-06,0.0,1759204135653638327
2.7411652550556064e-06,0.0,1759204135672536598
6.620012394634611e-06,0.0,1759204135694048217
1.769680913542017e-06,0.0,1759204135712792232
4.809689837891651e-06,0.0,1759204135734163328
6.719705893557784e-07,0.0,1759204135753409582
3.3112595793389456e-07,0.0,1759204135772390677
1.7415734335662249e-06,0.0,1759204135793913891
7.327453561859937e-07,0.0,1759204135811985958
1.4128137410875201e-06,0.0,1759204135834496530
3.986467016359948e-07,0.0,1759204135852540253
-6.932411241877936e-07,0.0,1759204135873020533
2.581823093263656e-06,0.0,1759204135893438403
-6.438194908956593e-07,0.0,1759204135912887144
2.3912720896839145e-06,0.0,1759204135933566917
-8.262298543021772e-07,0.0,1759204135953924823
-9.850481033870866e-07,0.0,1759204135972521180
4.6141672915707607e-07,0.0,1759204135994365352
-8.632826078995034e-07,0.0,1759204136012145263
2.8842614270763317e-07,0.0,1759204136034643990
-5.269720393681122e-07,0.0,1759204136052412733
-1.4344403953772379e-06,0.0,1759204136073352965
1.465101717160706e-06,0.0,1759204136093538610
-1.2068562538093578e-06,0.0,1759204136113332535
1.7506870648893335e-06,0.0,1759204136133423984
-1.2104661944605548e-06,0.0,1759204136153444837
-1.445859609313774e-06,0.0,1759204136172223025
3.311327058225004e-08,0.0,1759204136194375410
-1.1288926668710688e-06,0.0,1759204136212227299
-2.8041494066278876e-07,0.0,1759204136234127068
-1.2294704810592705e-06,0.0,1759204136252507112
-1.4987061909834903e-06,0.0,1759204136273836099
2.1052301210609e-07,0.0,1759204136293295217
-4.546606030891285e-07,0.0,1759204136312824794
2.5743969385432056e-07,0.0,1759204136334134325
-1.1175023613800227e-06,0.0,1759204136353248178
-1.3026760243593157e-06,0.0,1759204136371928834
-1.788645850015316e-05,0.0,1759204136393653832
-7.073807360353355e-07,0.0,1759204136413297475
-1.6701372060435095e-05,0.0,1759204136433888904
1.9266918811782803e-06,0.0,1759204136453270704
2.9977760164232536e-06,0.0,1759204136472370577
-4.5550964828124464e-06,0.0,1759204136494511817
2.2031198871456557e-07,0.0,1759204136512005686
-3.5655570861069644e-06,0.0,1759204136534821188
1.2419207692626291e-06,0.0,1759204136552774488
6.5363369410911895e-06,0.0,1759204136572861528
1.0091409686839577e-05,0.0,1759204136593637216
6.216670880514352e-06,0.0,1759204136612875367
5.389151993370682e-06,0.0,1759204136632741852
5.184313595276942e-06,0.0,1759204136653937163
4.379849173775511e-06,0.0,1759204136672223877
5.550209234658987e-06,0.0,1759204136694035857
3.496253172327214e-06,0.0,1759204136711976048
4.42372838282422e-06,0.0,1759204136734256772
3.0666321528674652e-06,0.0,1759204136752366421
1.624379385464419e-06,0.0,1759204136773437913
4.781451037345625e-06,0.0,1759204136793376807
1.247719447462822e-06,0.0,1759204136812926773
7.510802219219202e-07,0.0,1759204136832083338
1.0519770188541312e-06,0.0,1759204136854102403
5.135897708901994e-07,0.0,1759204136872107278
1.6930183731996929e-06,0.0,1759204136894688153
3.779326472193997e-07,0.0,1759204136912028471
1.2323759004080667e-06,0.0,1759204136934757892
-6.388139575379843e-08,0.0,1759204136952065892
-4.918338285001454e-07,0.0,1759204136973721733
1.3512286406697993e-06,0.0,1759204136993724308
4.170228515769116e-07,0.0,1759204137012390939
2.3212708400135146e-06,0.0,1759204137034564343
-9.414156252084631e-07,0.0,1759204137053115573
-1.1975696005357822e-06,0.0,1759204137072655964
2.868293300776204e-06,0.0,1759204137093294637
-1.060333226392179e-06,0.0,1759204137113003241
-1.2264016320296872e-06,0.0,1759204137132511071
-9.32580492168134e-07,0.0,1759204137154622898
-1.1035514442984986e-06,0.0,1759204137172391389
3.369874939640196e-07,0.0,1759204137194136248
-4.553162350542839e-07,0.0,1759204137212465617
-1.306342509218371e-06,0.0,1759204137233667234
-1.7097963259165394e-07,0.0,1759204137253861704
-1.1532946633241668e-06,0.0,1759204137273742898
2.0364221575935697e-06,0.0,1759204137293392738
-9.330459510108684e-07,0.0,1759204137312862510
1.914714782895588e-06,0.0,1759204137333494035
-1.1033024307149322e-06,0.0,1759204137353401324
-1.211251049381004e-06,0.0,1759204137372453013
8.761969714742375e-08,0.0,1759204137395680457
-7.014235306084723e-07,0.0,1759204137412243381
-1.4547672320192888e-06,0.0,1759204137433701207
-3.533809052564144e-07,0.0,1759204137453389108
-1.2556377146283618e-06,0.0,1759204137473206745
1.7122143926795303e-06,0.0,1759204137493027648
-9.195870988650335e-07,0.0,1759204137513414322
1.8207714117605532e-06,0.0,1759204137533451115
-1.0070587758510048e-06,0.0,1759204137553263544
-1.2358395756698216e-06,0.0,1759204137572433639
1.2569525289456997e-07,0.0,1759204137594556329
-9.631873597251156e-07,0.0,1759204137612321012
-1.9362673759809392e-07,0.0,1759204137634603448
-1.0880359112583511e-06,0.0,1759204137652679663
-1.359052329975107e-06,0.0,1759204137673163566
1.6410753749609488e-07,0.0,1759204137693349599
-9.83426354632258e-07,0.0,1759204137713452719
-1.1461061399308107e-06,0.0,1759204137732240487
-7.94470822194768e-07,0.0,1759204137754672727
-9.986977094443064e-07,0.0,1759204137772971022
1.5622585694110535e-06,0.0,1759204137793402641
-8.883675341845257e-07,0.0,1759204137813140334
1.5287852629630978e-06,0.0,1759204137833567388
-1.0322184202687404e-06,0.0,1759204137853106666
-1.1087763202840863e-06,0.0,1759204137872552474
4.277825855556695e-08,0.0,1759204137894560003
-5.841943086626376e-07,0.0,1759204137911982261
1.7017323036277528e-08,0.0,1759204137934667675
-6.220651934474994e-07,0.0,1759204137952482088
-1.3147616377357796e-06,0.0,1759204137973197737
2.194729925410983e-05,0.0,1759204137993325202
-1.7011957335182025e-07,0.0,1759204138013004289
2.063018708959185e-05,0.0,1759204138033568445
-2.5521458627397183e-06,0.0,1759204138053604402
-3.9589228578737735e-06,0.0,1759204138072441337
5.670253332233807e-06,0.0,1759204138094680306
-5.460534281374876e-07,0.0,1759204138111984543
4.525380935183728e-06,0.0,1759204138134115319
-1.6552207479963977e-06,0.0,1759204138152051775
-8.147817571263431e-06,0.0,1759204138173095334
-6.972851457253369e-06,0.0,1759204138194275803
-7.785975349267845e-06,0.0,1759204138213649090
1.4730311357457567e-05,0.0,1759204138233293819
-5.2305419807840226e-06,0.0,1759204138252931484
-6.940769536140627e-06,0.0,1759204138272432657
3.287230252888866e-06,0.0,1759204138294459283
-5.321435319180661e-06,0.0,1759204138311979716
3.706944681233597e-07,0.0,1759204138334054824
-6.7004253514699775e-06,0.0,1759204138351949563
-8.82389026351863e-06,0.0,1759204138373082690
-8.644791235697884e-06,0.0,1759204138393967479
-7.90515923505314e-06,0.0,1759204138412579674
-7.348723771220657e-06,0.0,1759204138434367530
-6.58658010430227e-06,0.0,1759204138452445974
-5.8953200777407515e-06,0.0,1759204138473112843
-5.4721408793059985e-06,0.0,1759204138493687621
-4.773680050623063e-06,0.0,1759204138513421056
-4.45786797269925e-06,0.0,1759204138533444186
-3.849404623912925e-06,0.0,1759204138553053899
-3.452058383842861e-06,0.0,1759204138572066528
7.263018722717847e-06,0.0,1759204138594099900
1.7399319013048697e-06,0.0,1759204138612272479
6.358260723083039e-06,0.0,1759204138634316128
6.032708101005051e-07,0.0,1759204138652679585
-5.660017032916104e-06,0.0,1759204138673388608
1.4045017732885383e-05,0.0,1759204138693772150
-5.45686889422782e-06,0.0,1759204138713001312
1.2916235099121668e-05,0.0,1759204138733585359
-7.274014662770718e-06,0.0,1759204138752879889
-7.930609223878605e-06,0.0,1759204138772340405
9.133929321134742e-07,0.0,1759204138793977700
-3.7920667134528847e-06,0.0,1759204138811979816
7.748726635868346e-07,0.0,1759204138834441605
-4.128281589077128e-06,0.0,1759204138852482413
-9.44496385581912e-06,0.0,1759204138873266411
9.421940399741294e-06,0.0,1759204138893583801
-7.5818740825156355e-06,0.0,1759204138913462847
1.0256007905871851e-05,0.0,1759204138933285239
-7.786965700052142e-06,0.0,1759204138953051778
-9.116656243541639e-06,0.0,1759204138972239850
-9.911152050430806e-08,0.0,1759204138994206580
-6.962784045871444e-06,0.0,1759204139012316550
-1.7859242067038023e-06,0.0,1759204139033990151
-7.522940253796327e-06,0.0,1759204139052272489
-9.188659896554405e-06,0.0,1759204139073107606
8.758575833342777e-07,0.0,1759204139093040711
-3.1151568681688256e-06,0.0,1759204139112527353
6.952090776965425e-06,0.0,1759204139134884174
-4.700181560679696e-06,0.0,1759204139152957231
-1.0127204277074607e-05,0.0,1759204139173895291
-4.0480354936181566e-05,0.0,1759204139194034767
-9.984839170770397e-06,0.0,1759204139213315718
-3.24668571985832e-05,0.0,1759204139233197661
-5.108368934232901e-06,0.0,1759204139252954608
-2.802723265552464e-06,0.0,1759204139272578229
-1.2602120050583012e-05,0.0,1759204139294107013
-5.652733254250284e-06,0.0,1759204139312634667
-1.034848180762627e-05,0.0,1759204139334980679
-2.9733645593903162e-06,0.0,1759204139352179657
4.452772147908042e-06,0.0,1759204139373210425
-1.842966607729475e-05,0.0,1759204139393418684
3.7467206076067966e-06,0.0,1759204139413331970
-1.811675930090613e-05,0.0,1759204139433253302
4.532258045660672e-06,0.0,1759204139453453228
5.746131712776923e-06,0.0,1759204139472253940
-4.059957351633286e-06,0.0,1759204139494551384
1.7616452959689895e-06,0.0,1759204139512548021
-3.524629321227559e-06,0.0,1759204139534228049
2.6098894785859684e-06,0.0,1759204139551947548
8.83611557726894e-06,0.0,1759204139573575311
-1.3861133287580261e-05,0.0,1759204139593004209
6.219216917649688e-06,0.0,1759204139613255015
-1.4121707758044001e-05,0.0,1759204139633514230
7.539494182766242e-06,0.0,1759204139653047414
9.22767607936703e-06,0.0,1759204139672563397
-1.0137851236179561e-06,0.0,1759204139694696830
7.374616506222628e-06,0.0,1759204139712188219
1.6241651321246102e-06,0.0,1759204139734735427
8.589277822555536e-06,0.0,1759204139752305396
1.0531107136235406e-05,0.0,1759204139773348242
-9.131081396227121e-07,0.0,1759204139793656037
3.930870122263969e-06,0.0,1759204139812283946
-1.0282943076289043e-06,0.0,1759204139834228794
4.19042772112714e-06,0.0,1759204139852350671
9.643543130763055e-06,0.0,1759204139873906857
-1.0614279825458293e-05,0.0,1759204139893817564
8.003215698412708e-06,0.0,1759204139913329077
-1.0399779988534284e-05,0.0,1759204139933814530
9.318318826592575e-06,0.0,1759204139953053521
9.753610553093024e-06,0.0,1759204139972453773
9.00774129500757e-07,0.0,1759204139994563128
5.450285091060928e-06,0.0,1759204140012531515
5.986668956232432e-07,0.0,1759204140034121921
5.211732708575204e-06,0.0,1759204140052602860
1.037542517743035e-05,0.0,1759204140073498298
-8.402919317637392e-06,0.0,1759204140093750878
9.19597738787568e-06,0.0,1759204140112889167
-8.329408431288325e-06,0.0,1759204140133311439
8.903162205365228e-06,0.0,1759204140153787514
9.346485200233122e-06,0.0,1759204140172368261
1.106844976327589e-06,0.0,1759204140194669776
5.379356000918463e-06,0.0,1759204140212306260
8.297238167571787e-07,0.0,1759204140234173204
5.175819988533686e-06,0.0,1759204140252497846
9.966966979262442e-06,0.0,1759204140273427588
-7.891155985409644e-06,0.0,1759204140293419258
8.022264266419486e-06,0.0,1759204140313370257
-8.421401271447361e-06,0.0,1759204140333473916
8.35514054210642e-06,0.0,1759204140353178212
9.525906633650805e-06,0.0,1759204140372097685
1.4630114551878092e-06,0.0,1759204140395033477
8.082805380792603e-06,0.0,1759204140411987192
3.170452485859142e-06,0.0,1759204140433934828
8.353474021724592e-06,0.0,1759204140452129743
9.704603026609698e-06,0.0,1759204140473381962
1.7501352662237372e-07,0.0,1759204140493113837
3.779596717482717e-06,0.0,1759204140512577789
-2.5249083790797e-07,0.0,1759204140534288506
7.268893037568907e-06,0.0,1759204140553479333
8.182852785089305e-06,0.0,1759204140572328961
-6.729277510528267e-06,0.0,1759204140593941894
8.329005417990263e-06,0.0,1759204140612815475
-6.393106236690472e-06,0.0,1759204140633473441
8.564001829820043e-06,0.0,1759204140653340458
8.789950806940449e-06,0.0,1759204140672761139
1.4600689495961423e-06,0.0,1759204140694266470
5.027344492661018e-06,0.0,1759204140711987557
1.2707757213577927e-06,0.0,1759204140734843363
5.14005927503181e-06,0.0,1759204140752202049
9.11913698126815e-06,0.0,1759204140773221880
-5.957773821550339e-06,0.0,1759204140793417362
7.162939774073861e-06,0.0,1759204140813736895
7.453669163548565e-06,0.0,1759204140832441884
5.733838063228298e-06,0.0,1759204140854212950
6.231173359005106e-06,0.0,1759204140872680974
-2.841314045568373e-07,0.0,1759204140894680887
5.404904351407405e-06,0.0,1759204140912410422
3.0242801648109676e-08,0.0,1759204140934190350
5.741812215824282e-06,0.0,1759204140952149088
7.468203779179563e-06,0.0,1759204140973030737
-5.114487797039833e-06,0.0,1759204140993643113
6.448186283476692e-06,0.0,1759204141013416048
7.207012496296426e-06,0.0,1759204141032087479
5.258013527817436e-06,0.0,1759204141054104196
6.212988149866709e-06,0.0,1759204141072116092
1.1460104169015287e-06,0.0,1759204141095241050
5.292804778660623e-06,0.0,1759204141112445471
6.382133761503158e-06,0.0,1759204141133694405
3.937468333654187e-06,0.0,1759204141153156941
5.293323538269396e-06,0.0,1759204141173079216
-1.9440255857663847e-06,0.0,1759204141193099078
1.119451719672907e-06,0.0,1759204141212523710
-6.228029506837476e-06,0.0,1759204141234705742
2.780104584326916e-06,0.0,1759204141252050483
6.80651669891757e-06,0.0,1759204141273076555
-8.606816243696043e-06,0.0,1759204141293728460
6.3077740132469495e-06,0.0,1759204141312774278
6.676585955687119e-06,0.0,1759204141332647310
5.351832368340339e-06,0.0,1759204141354026604
5.76606588397427e-06,0.0,1759204141372714006
2.3530200352073453e-07,0.0,1759204141394875269
3.147878009945161e-06,0.0,1759204141412586025
1.7007793127129233e-07,0.0,1759204141434709489
3.306591896015578e-06,0.0,1759204141452250324
6.5708423585525174e-06,0.0,1759204141473071117
-5.287399470981228e-06,0.0,1759204141493528205
5.371941048293864e-06,0.0,1759204141513433352
-5.8824706424081e-06,0.0,1759204141533660107
5.599558457894474e-06,0.0,1759204141553025432
5.854639837624752e-06,0.0,1759204141572306159
1.0903169970127048e-05,0.0,1759204141594779613
6.156535799173376e-06,0.0,1759204141611969892
4.200701848603978e-06,0.0,1759204141633467456
6.85800642760692e-06,0.0,1759204141653269233
3.1936708485107754e-06,0.0,1759204141673204963
1.1076862531546124e-05,0.0,1759204141693467735
2.4200515566608737e-06,0.0,1759204141713079647
1.2788399733768754e-06,0.0,1759204141732879929
2.0977037682725684e-06,0.0,1759204141754746808
7.917413966141859e-07,0.0,1759204141772555661
-4.331523686536947e-06,0.0,1759204141794881384
-3.584042943805134e-07,0.0,1759204141812322825
-3.5015237883488918e-06,0.0,1759204141834275486
4.914327482717729e-07,0.0,1759204141852520420
1.928190272892295e-06,0.0,1759204141873507803
-4.293826309232653e-06,0.0,1759204141893366519
-1.2721318967594186e-06,0.0,1759204141912588150
2.13718779363125e-06,0.0,1759204141933283290
8.26425961207232e-07,0.0,1759204141954258741
1.9633960924733617e-06,0.0,1759204141972096034
1.1159499859488854e-05,0.0,1759204141993250328
2.322984233184285e-06,0.0,1759204142013411989
1.5018583813297657e-06,0.0,1759204142032818387
2.0693870009347706e-06,0.0,1759204142054153492
1.16111292524332e-06,0.0,1759204142072674420
5.048936374970388e-06,0.0,1759204142093921516
2.3667132433207633e-06,0.0,1759204142112644167
4.283661197140016e-06,0.0,1759204142133955555
1.55377928213126e-06,0.0,1759204142152569245
-1.403641148238927e-06,0.0,1759204142173328544
7.595682066291654e-06,0.0,1759204142193267648
-1.1592868900648062e-06,0.0,1759204142212867057
6.984980150219963e-06,0.0,1759204142233506728
-2.014242251040984e-06,0.0,1759204142253381619
-2.446853350507422e-06,0.0,1759204142272585628
1.5112714613965334e-06,0.0,1759204142294037606
-6.81376305621616e-07,0.0,1759204142312549485
1.3229075620526058e-06,0.0,1759204142334716137
-1.0834652169684345e-06,0.0,1759204142352211490
-3.597177522003841e-06,0.0,1759204142372896444
4.742779382902556e-06,0.0,1759204142393570770
-3.223970460863334e-06,0.0,1759204142413157092
4.887316711826944e-06,0.0,1759204142433004234
-3.3355650149238743e-06,0.0,1759204142452890680
-3.954319266861686e-06,0.0,1759204142472258217
3.207418252901678e-08,0.0,1759204142494526839
-3.158485599940052e-06,0.0,1759204142512113503
7.311496176125924e-06,0.0,1759204142534417243
-2.281373519803238e-06,0.0,1759204142552516687
-5.528010666114127e-06,0.0,1759204142574058735
1.030543262319358e-05,0.0,1759204142593579503
2.6332429731273857e-06,0.0,1759204142612102780
8.675400479939491e-06,0.0,1759204142634250650
7.37909132491417e-07,0.0,1759204142652557674
-7.539971141216534e-06,0.0,1759204142674117589
2.0341348457987315e-05,0.0,1759204142694118085
-6.683117149156241e-06,0.0,1759204142712881248
1.857486155117631e-05,0.0,1759204142733421194
-8.127412627910263e-06,0.0,1759204142753570969
-9.257150088423533e-06,0.0,1759204142772876040
-7.745706781978465e-06,0.0,1759204142794847943
-8.597335384692844e-06,0.0,1759204142812121317
-6.666322606144101e-06,0.0,1759204142834739895
-7.502064338126237e-06,0.0,1759204142852439894
-8.467681297223377e-06,0.0,1759204142873620401
-2.0990703861121564e-06,0.0,1759204142893345019
-6.767757024438087e-06,0.0,1759204142913130156
-1.0820381058251528e-06,0.0,1759204142933565614
-6.044447525668033e-06,0.0,1759204142953461634
-5.837998017544598e-06,0.0,1759204142972286474
7.2017050711086475e-06,0.0,1759204142994565931
-3.4659181094113942e-06,0.0,1759204143012545266
5.918552241869853e-06,0.0,1759204143034280279
-9.48011918759794e-07,0.0,1759204143052293408
-8.521905067979541e-06,0.0,1759204143073528434
1.5149309116535832e-05,0.0,1759204143093351253
-6.896687989046849e-06,0.0,1759204143113107737
1.6116704600322304e-05,0.0,1759204143133777216
-9.059168491532745e-06,0.0,1759204143153041766
-1.0995701354101314e-05,0.0,1759204143172203812
-9.218428148263273e-06,0.0,1759204143194237862
-9.973913680598756e-06,0.0,1759204143212014108
-8.205846438033837e-06,0.0,1759204143234821871
-8.673636550691033e-06,0.0,1759204143252252851
-8.311412866331676e-06,0.0,1759204143272882380
-5.677797134565792e-06,0.0,1759204143293439846
-5.936072390902162e-06,0.0,1759204143312195505
-4.5661875459019025e-06,0.0,1759204143334549560
-5.017952649305033e-06,0.0,1759204143352300684
-5.560098598362142e-06,0.0,1759204143373551715
-2.258655312687221e-05,0.0,1759204143393453542
-5.798315227524977e-06,0.0,1759204143413458435
-2.1161873917359637e-05,0.0,1759204143433527743
-2.884004077697796e-06,0.0,1759204143453176323
-1.4097701815069951e-06,0.0,1759204143472799622
-8.373460601745971e-06,0.0,1759204143494605159
-3.355697955671506e-06,0.0,1759204143512137798
-6.756980022826239e-06,0.0,1759204143534326331
-1.7868252237148358e-06,0.0,1759204143552285821
3.39631915919942e-06,0.0,1759204143573272563
-1.270662303330738e-05,0.0,1759204143593561453
3.116425804346176e-06,0.0,1759204143613003707
-1.104690264424706e-05,0.0,1759204143634692530
5.98047638115108e-06,0.0,1759204143653461082
6.541326316112704e-06,0.0,1759204143672308429
9.841671913143745e-06,0.0,1759204143694116324
7.131684367305005e-06,0.0,1759204143712025174
8.226135360855646e-06,0.0,1759204143734108202
6.215763542544793e-06,0.0,1759204143752446162
4.086691626969415e-06,0.0,1759204143773193356
6.285976009105162e-06,0.0,1759204143793051845
3.517958185947508e-06,0.0,1759204143813125288
7.68773841486789e-06,0.0,1759204143833083081
2.513450134799192e-06,0.0,1759204143853088660
1.7144558939681932e-06,0.0,1759204143872554092
3.6158897683336655e-06,0.0,1759204143894418956
1.449409046074413e-06,0.0,1759204143912011832
2.457001196430309e-06,0.0,1759204143934289338
6.48693118756921e-07,0.0,1759204143952256669
-4.1779938978680007e-08,0.0,1759204143973228350
2.287732010365146e-06,0.0,1759204143993787068
1.019008784772897e-06,0.0,1759204144013012984
1.984192330370109e-06,0.0,1759204144033966918
6.546480898219016e-07,0.0,1759204144052445221
-7.916259641038528e-07,0.0,1759204144073089540
3.4898176704521106e-06,0.0,1759204144093569548
-8.435660559172575e-07,0.0,1759204144112868715
3.2146054739958447e-06,0.0,1759204144133338118
-1.1677530044177298e-06,0.0,1759204144153153545
-1.362691883116965e-06,0.0,1759204144172231065
5.364658927215713e-07,0.0,1759204144194375836
-5.68907544234853e-07,0.0,1759204144212046776
4.218256809447935e-07,0.0,1759204144234538498
-6.984728420968577e-07,0.0,1759204144252598895
-1.9032651815151441e-06,0.0,1759204144273445036
2.392509074345315e-06,0.0,1759204144293077657
-1.3930602412132951e-06,0.0,1759204144313337777
2.534852468090022e-06,0.0,1759204144333342644
-1.5198937774868968e-06,0.0,1759204144353068577
-1.657541304387764e-06,0.0,1759204144372233346
1.3393868064185406e-07,0.0,1759204144394724032
-1.5032331558033728e-06,0.0,1759204144411964031
-3.009867578772211e-08,0.0,1759204144434361268
-1.005812929372089e-06,0.0,1759204144452010483
-2.0673017585893646e-06,0.0,1759204144473431423
1.5675383382717472e-06,0.0,1759204144493552410
-1.7300087542631688e-06,0.0,1759204144513207405
1.8362116899354077e-06,0.0,1759204144533265512
-1.7002152609690598e-06,0.0,1759204144553262765
-1.9514912914495858e-06,0.0,1759204144572380800
-7.628601387484421e-08,0.0,1759204144594244166
-1.5024683206139105e-06,0.0,1759204144612055444
-4.6446003372884933e-07,0.0,1759204144634634150
-1.675786377618541e-06,0.0,1759204144652245495
-1.9963937750889694e-06,0.0,1759204144673472862
6.829428843672476e-08,0.0,1759204144693644915
-7.770832458584062e-07,0.0,1759204144712267820
8.817700040708823e-08,0.0,1759204144734660792
-8.447679520780689e-07,0.0,1759204144752406388
-1.8072772776379864e-06,0.0,1759204144773728745
2.298972122115163e-05,0.0,1759204144793298293
1.343255707654653e-07,0.0,1759204144812962616
2.1803443007334817e-05,0.0,1759204144833480506
-2.9058217693419496e-06,0.0,1759204144852859037
-4.2279602026233056e-06,0.0,1759204144872966903
6.082109728066514e-06,0.0,1759204144894583387
-1.5177211812535055e-07,0.0,1759204144912588168
5.102316279323071e-06,0.0,1759204144934561751
-1.4731797653857362e-06,0.0,1759204144952025670
-8.187366281322885e-06,0.0,1759204144973246676
-6.043889245076305e-06,0.0,1759204144993928097
-7.86616551493031e-06,0.0,1759204145013177052
-5.439187470814197e-06,0.0,1759204145033774708
-6.729080060951464e-06,0.0,1759204145053499770
-6.198911927853335e-06,0.0,1759204145072177201
-4.850441190587487e-06,0.0,1759204145095033632
-5.126120740599748e-06,0.0,1759204145112069814
-4.001201679778598e-06,0.0,1759204145134479221
-4.35513717114228e-06,0.0,1759204145152042305
-4.2042108762195564e-06,0.0,1759204145173919765
-2.260421675567433e-06,0.0,1759204145193391963
-3.371066902262517e-06,0.0,1759204145213383971
-1.64841292992722e-06,0.0,1759204145233566350
-2.8882874926717716e-06,0.0,1759204145253282292
-2.7747730986241986e-06,0.0,1759204145272303043
-1.7722420611141503e-06,0.0,1759204145294300068
-2.215239252870518e-06,0.0,1759204145312106159
-2.2386208429184497e-06,0.0,1759204145333237066
-1.8029357713053403e-06,0.0,1759204145353410862
-1.8536646948286235e-06,0.0,1759204145372899297
-8.726362323960649e-07,0.0,1759204145393452470
-1.1399818678056957e-06,0.0,1759204145412686022
-6.715721211088481e-07,0.0,1759204145434225854
-1.0004369104337339e-06,0.0,1759204145452262313
-1.371972097056312e-06,0.0,1759204145472866914
1.8326206574532138e-07,0.0,1759204145493673469
-1.2026690456522143e-06,0.0,1759204145512919869
3.702053551266305e-07,0.0,1759204145533401383
-1.148705706027912e-06,0.0,1759204145553101742
-1.146108330938639e-06,0.0,1759204145572342294
-4.230340448763738e-07,0.0,1759204145593993363
-7.318941115444167e-07,0.0,1759204145612029812
-1.0610193686582696e-06,0.0,1759204145633570762
-5.062819746619109e-07,0.0,1759204145653995638
-9.2330183837038e-07,0.0,1759204145673417818
5.631822555858858e-07,0.0,1759204145693193749
-7.058605542018883e-07,0.0,1759204145713438653
6.307231708438019e-07,0.0,1759204145733880774
-7.590125192581313e-07,0.0,1759204145753235813
-7.811212772207165e-07,0.0,1759204145772740919
-7.969863779602006e-08,0.0,1759204145794357089
-4.1930481443658783e-07,0.0,1759204145812535672
-7.911045619446698e-07,0.0,1759204145833376573
-2.4990636810685855e-07,0.0,1759204145853284590
-6.767667706718344e-07,0.0,1759204145873522248
7.792016222650158e-07,0.0,1759204145893259176
-5.47554889641885e-07,0.0,1759204145912894225
-6.447548653837787e-07,0.0,1759204145932225557
-4.4377779562337275e-07,0.0,1759204145954812029
-5.677296772097151e-07,0.0,1759204145972735150
-2.2201565834809666e-08,0.0,1759204145994271241
-4.4115369121892244e-07,0.0,1759204146012314985
-4.724834411351637e-08,0.0,1759204146034408891
-4.703914201142075e-07,0.0,1759204146052303110
-5.927459226130722e-07,0.0,1759204146073452131
1.3069498974838824e-07,0.0,1759204146094127519
-1.9346672901475806e-07,0.0,1759204146112372091
-5.35047888026964e-07,0.0,1759204146133907186
-6.830500592800124e-08,0.0,1759204146153838042
-4.781640082944953e-07,0.0,1759204146173423691
7.022391471894741e-07,0.0,1759204146193590144
-4.1506893635316756e-07,0.0,1759204146213101165
-4.5100579965909997e-07,0.0,1759204146232526479
-3.280597038061465e-07,0.0,1759204146254174179
-3.784586771178849e-07,0.0,1759204146273188022
1.5095302616313932e-07,0.0,1759204146294108271
-1.269568870639325e-07,0.0,1759204146312742666
-1.0390308641042096e-05,0.0,1759204146334542828
-4.774934736063497e-06,0.0,1759204146352170610
1.0766759798681897e-06,0.0,1759204146372885979
2.826283290585384e-06,0.0,1759204146394046570
1.8009711460895487e-06,0.0,1759204146413110696
3.055542527490408e-06,0.0,1759204146433246649
1.3947504364876745e-06,0.0,1759204146452848065
1.1538491066616489e-06,0.0,1759204146472247780
1.659439170361588e-06,0.0,1759204146494149928
9.121302306465052e-07,0.0,1759204146512014671
1.313788437217743e-06,0.0,1759204146534211287
5.891918073050905e-07,0.0,1759204146552204823
2.9235576306567945e-07,0.0,1759204146573098297
-1.7278851183275444e-05,0.0,1759204146593254312
-1.0077463510673686e-06,0.0,1759204146613499742
-1.6740392143119537e-05,0.0,1759204146633907181
1.42500560400987e-06,0.0,1759204146653196039
3.265545983578596e-06,0.0,1759204146672476416
-5.495773843983896e-06,0.0,1759204146694410258
2.1610500305647293e-06,0.0,1759204146712358226
-2.6255422508041323e-06,0.0,1759204146734398114
3.955609666539631e-06,0.0,1759204146752034043
6.003353836319872e-06,0.0,1759204146773308802
1.9006861670167154e-05,0.0,1759204146793109624
1.2105016275967866e-05,0.0,1759204146812125759
2.3805375029983983e-05,0.0,1759204146835245229
1.6367839888532774e-07,0.0,1759204146853062415
-2.2096070815914346e-06,0.0,1759204146872631437
2.4483734534597188e-05,0.0,1759204146893561906
-2.7654078202211305e-06,0.0,1759204146913300171
1.8169977744585713e-05,0.0,1759204146933691081
-6.111835631383065e-06,0.0,1759204146953062459
-7.163307841048548e-06,0.0,1759204146972374015
2.3247769682749745e-06,0.0,1759204146994798540
-3.337350068338609e-06,0.0,1759204147012315571
1.9450456798544845e-06,0.0,1759204147034065986
-3.627857531623103e-06,0.0,1759204147052649607
-9.987166016756873e-06,0.0,1759204147072877551
1.0994975744068956e-05,0.0,1759204147093561184
-8.918904652976753e-06,0.0,1759204147113128418
1.1097607458067752e-05,0.0,1759204147133828081
-9.048160412370341e-06,0.0,1759204147153748839
-9.621139259402119e-06,0.0,1759204147172968540
-8.056677864316747e-08,0.0,1759204147194821918
-8.48657799579366e-06,0.0,1759204147211993307
-7.107221290613912e-07,0.0,1759204147233997600
-8.834929726785221e-06,0.0,1759204147252158409
-1.1247444863053903e-05,0.0,1759204147273187097
6.837646514615482e-06,0.0,1759204147294040807
-1.0591563117665427e-05,0.0,1759204147312938845
-1.189162801972432e-05,0.0,1759204147333305134
-1.1282200433518642e-05,0.0,1759204147353247451
-1.022754826520178e-05,0.0,1759204147372114804
1.840554774194556e-07,0.0,1759204147394509124
-6.958743283453626e-06,0.0,1759204147412594319
-1.4602973090121868e-06,0.0,1759204147434686774
-7.747250471168073e-06,0.0,1759204147452555929
-9.545389772476711e-06,0.0,1759204147473562592
1.375925575642e-06,0.0,1759204147493100380
-3.0114712478674743e-06,0.0,1759204147512261821
1.4541325084000595e-06,0.0,1759204147534481981
-7.627337703033319e-06,0.0,1759204147553036263
-8.74855833519275e-06,0.0,1759204147572146984
-1.0556609419479113e-05,0.0,1759204147594153556
-7.906021090189155e-06,0.0,1759204147612978888
-9.389512433603037e-06,0.0,1759204147633710368
-6.1487600455867475e-06,0.0,1759204147652999552
-5.364985894510306e-06,0.0,1759204147672392829
-5.8446452595100696e-06,0.0,1759204147694485740
-4.6746090408610275e-06,0.0,1759204147712425644
-4.763568858138509e-06,0.0,1759204147733951263
-3.6734703900940575e-06,0.0,1759204147752010720
-2.593154766265704e-06,0.0,1759204147773263998
1.598114294591991e-05,0.0,1759204147793372178
-1.016738096932408e-06,0.0,1759204147813087198
1.564998434112594e-05,0.0,1759204147833395670
-2.6601202208710288e-06,0.0,1759204147853241254
-3.660824385213301e-06,0.0,1759204147872689053
4.107214729304012e-06,0.0,1759204147894463581
-3.2835062831973295e-06,0.0,1759204147912241373
2.889896581170235e-06,0.0,1759204147934842680
-1.7421678265400275e-06,0.0,1759204147952453759
-6.853960394421838e-06,0.0,1759204147973370298
9.159816395973751e-06,0.0,1759204147993540241
-5.73310883534745e-06,0.0,1759204148013325328
1.0325844068843035e-05,0.0,1759204148033706645
-6.798267850722813e-06,0.0,1759204148052861937
-8.02106129745342e-06,0.0,1759204148072429145
2.2569453509915324e-07,0.0,1759204148094482057
-6.151763958389713e-06,0.0,1759204148112531806
-1.3586194170859421e-06,0.0,1759204148134067155
-6.716735668768233e-06,0.0,1759204148152177123
-8.224827288339965e-06,0.0,1759204148173468199
1.0377336106912322e-06,0.0,1759204148193402105
-2.8026170818281573e-06,0.0,1759204148212174924
6.060006268322463e-06,0.0,1759204148235730564
-9.760046295030094e-06,0.0,1759204148253134894
-1.0483193321814367e-05,0.0,1759204148272034623
8.204817915467705e-06,0.0,1759204148293742172
-9.869862795893666e-06,0.0,1759204148313376893
5.535819279966499e-06,0.0,1759204148333635416
-1.047165059966919e-05,0.0,1759204148353054254
-1.0554687208097693e-05,0.0,1759204148372675306
-3.3196300522090305e-06,0.0,1759204148394603596
-6.645994779186607e-06,0.0,1759204148412322273
-2.604840590148394e-06,0.0,1759204148433983484
-6.058542791968778e-06,0.0,1759204148452375129
-9.863623106547937e-06,0.0,1759204148473457679
5.332004554408372e-06,0.0,1759204148493313487
-7.870710018165172e-06,0.0,1759204148513277749
2.6565255050429924e-05,0.0,1759204148533465400
-7.0723051704857e-06,0.0,1759204148553117043
-8.720396726603994e-06,0.0,1759204148572317336
-1.4117402792436868e-05,0.0,1759204148594640745
-1.0518212472486884e-05,0.0,1759204148613096798
-1.2098487303316685e-05,0.0,1759204148634449928
-8.079230408722206e-06,0.0,1759204148652200296
-6.168838315317144e-06,0.0,1759204148673350745
-1.1607862057222006e-05,0.0,1759204148693291003
-5.086028377609376e-06,0.0,1759204148713458811
-1.017913925070697e-05,0.0,1759204148733616094
-3.3925272108159828e-06,0.0,1759204148753139212
-2.3458844082045907e-06,0.0,1759204148772231867
-5.1585035038094615e-06,0.0,1759204148794118419
-2.0775886285123445e-06,0.0,1759204148811991001
-3.5249026710607983e-06,0.0,1759204148833888529
-9.845194204902184e-07,0.0,1759204148852200676
-5.563642244938987e-09,0.0,1759204148873459633
-3.4013833629470753e-06,0.0,1759204148893449001
-1.594136111419214e-06,0.0,1759204148912730226
-2.9360951171992854e-06,0.0,1759204148934046395
-1.0238651831693639e-06,0.0,1759204148952297459
9.947690991201245e-07,0.0,1759204148973457949
-5.134644052584668e-06,0.0,1759204148993883862
9.445043296046951e-07,0.0,1759204149013515229
-4.912299717624995e-06,0.0,1759204149033610623
1.4290535746206566e-06,0.0,1759204149053232936
1.7231500374079478e-06,0.0,1759204149072647571
-1.0005028605378397e-06,0.0,1759204149094542200
5.618581067430097e-07,0.0,1759204149112645567
-9.608125068231807e-07,0.0,1759204149134245932
7.397835048095579e-07,0.0,1759204149152009958
2.4798311583492733e-06,0.0,1759204149173435529
-2.406471829677672e-05,0.0,1759204149193398692
1.1127915181448084e-06,0.0,1759204149213158319
2.7146097496389783e-06,0.0,1759204149232340354
6.412703279330546e-07,0.0,1759204149254314253
2.51724716338676e-06,0.0,1759204149272635696
-8.261897129370776e-06,0.0,1759204149294797999
2.7210762959167084e-06,0.0,1759204149312553835
-6.229905271007004e-06,0.0,1759204149334519841
4.533872605140249e-06,0.0,1759204149352690305
8.239916944165718e-06,0.0,1759204149373558329
4.305357130681057e-06,0.0,1759204149393605556
7.760730709980952e-06,0.0,1759204149413655001
3.6630815791868274e-06,0.0,1759204149433605621
6.752063747694126e-06,0.0,1759204149453314475
6.508015184706165e-06,0.0,1759204149472349155
4.105989276592382e-06,0.0,1759204149494382453
5.210234419579694e-06,0.0,1759204149511947852
3.7451758196185337e-06,0.0,1759204149534265412
4.687444837056533e-06,0.0,1759204149551953457
4.72245751574928e-06,0.0,1759204149573564337
-9.33438916079738e-06,0.0,1759204149593308168
-3.090542322480394e-06,0.0,1759204149612830929
2.048826217607279e-06,0.0,1759204149634331078
3.195909143715569e-06,0.0,1759204149652512246
4.523656036884218e-06,0.0,1759204149672861698
9.47047788883295e-07,0.0,1759204149693288769
3.8682022073943435e-06,0.0,1759204149712869871
5.600830876090786e-07,0.0,1759204149733659538
3.623152834446716e-06,0.0,1759204149753209032
3.490905827700327e-06,0.0,1759204149772556395
-8.451391986857801e-06,0.0,1759204149794774943
-1.916682406913292e-06,0.0,1759204149812537337
4.792835274670505e-06,0.0,1759204149833651564
-3.2804178403787917e-06,0.0,1759204149853513477
4.584785225052745e-06,0.0,1759204149873273781
-1.8385558352235965e-05,0.0,1759204149893371568
3.4300330366675816e-06,0.0,1759204149913516395
-1.8485776394986103e-05,0.0,1759204149933196921
4.188638450500761e-06,0.0,1759204149953398357
5.409601511629627e-06,0.0,1759204149972351437
1.6297401119527425e-05,0.0,1759204149994551723
7.582206329781385e-06,0.0,1759204150012176790
4.11674339399013e-06,0.0,1759204150033208686
9.814271084965047e-06,0.0,1759204150053048132
2.881110231281141e-06,0.0,1759204150072882917
1.8798780336512277e-05,0.0,1759204150093202706
2.179642390139078e-06,0.0,1759204150113289123
1.825779496490374e-05,0.0,1759204150133910255
-6.99821239295153e-07,0.0,1759204150153198366
-2.7256528981826546e-06,0.0,1759204150172095261
5.371196447178374e-06,0.0,1759204150194443504
-2.033780225623847e-06,0.0,1759204150212227696
1.3586229101478621e-05,0.0,1759204150233818598
-5.440532557040592e-06,0.0,1759204150253322150
-7.4007080034994865e-06,0.0,1759204150273028673
2.035963374964174e-06,0.0,1759204150293593367
-2.083482296378041e-06,0.0,1759204150312636650
-6.884274730309152e-06,0.0,1759204150332954520
-9.678784025380623e-07,0.0,1759204150353583388
-6.235806694081949e-06,0.0,1759204150373493748
-1.028635341907405e-05,0.0,1759204150393291828
-6.288970985083619e-06,0.0,1759204150413523029
-5.427460553644912e-06,0.0,1759204150432499540
-5.232723266025456e-06,0.0,1759204150453977927
-4.408740178463337e-06,0.0,1759204150472519644
-5.639736194913103e-06,0.0,1759204150494962849
-4.057147990636797e-06,0.0,1759204150512391918
-4.57823108563599e-06,0.0,1759204150534155330
-3.1060682348635433e-06,0.0,1759204150552613127
-1.5709808913945512e-06,0.0,1759204150573560425
1.5347056456323483e-05,0.0,1759204150593720052
-5.604458758314427e-07,0.0,1759204150613252152
1.502567070798957e-05,0.0,1759204150633279567
-1.9817404007603603e-06,0.0,1759204150653080231
-2.952329132730705e-06,0.0,1759204150672379119
3.8073202073169382e-06,0.0,1759204150695603013
-3.301031009427243e-06,0.0,1759204150712645604
2.677450820202729e-06,0.0,1759204150734217206
-4.036738883508758e-06,0.0,1759204150752700952
-6.2279749195398155e-06,0.0,1759204150773902504
-1.058972813841965e-05,0.0,1759204150794203918
-6.070510736918943e-06,0.0,1759204150813277579
-9.71126169250274e-06,0.0,1759204150833432015
-4.582426889309885e-06,0.0,1759204150853219951
-3.6094022137362122e-06,0.0,1759204150872460508
-5.462550306780896e-06,0.0,1759204150894464615
-3.028184262691604e-06,0.0,1759204150912206947
-2.008621496816515e-06,0.0,1759204150934029427
-2.487992517352125e-06,0.0,1759204150953130562
-1.575076194977433e-06,0.0,1759204150973631176
-3.911974717728634e-06,0.0,1759204150993545017
-2.449760572425023e-06,0.0,1759204151012817607
-3.2960034242282017e-06,0.0,1759204151034222275
-1.7675036304231294e-06,0.0,1759204151052336690
-1.567944706672362e-07,0.0,1759204151072997845
-4.426648215221234e-06,0.0,1759204151093848305
1.524144190668668e-07,0.0,1759204151113218153
-3.9676753156935206e-06,0.0,1759204151133767256
7.809425733763611e-07,0.0,1759204151153015258
1.025889999621491e-06,0.0,1759204151172137010
-9.492068576219676e-07,0.0,1759204151193916860
2.1352244787446872e-07,0.0,1759204151212011060
-7.89599257157351e-07,0.0,1759204151234410288
4.269438276323847e-07,0.0,1759204151252247132
1.6974464798957784e-06,0.0,1759204151273368533
-2.5902944215140228e-06,0.0,1759204151293908889
1.613473474680317e-06,0.0,1759204151312836777
-2.4589191815474064e-06,0.0,1759204151333073151
1.6610452210765103e-06,0.0,1759204151353407561
1.8072649939354187e-06,0.0,1759204151371977022
1.02643143913633e-05,0.0,1759204151394072703
3.0704415265934155e-06,0.0,1759204151412104061
8.312224678674475e-06,0.0,1759204151434643100
7.931085047025219e-07,0.0,1759204151452406647
-1.8908723936451527e-06,0.0,1759204151473715478
6.809687677851219e-06,0.0,1759204151493339194
-7.380544438585439e-07,0.0,1759204151513367020
1.2361941695890031e-05,0.0,1759204151533691464
-2.358864607407757e-06,0.0,1759204151553167259
-3.7978512306941617e-06,0.0,1759204151572128516
3.437259732224818e-06,0.0,1759204151594064630
-2.546258557300031e-06,0.0,1759204151612574687
1.6266786038278295e-06,0.0,1759204151634234293
-3.722259094563696e-06,0.0,1759204151652055957
-5.394291299434447e-06,0.0,1759204151673205576
2.9501434763236094e-06,0.0,1759204151693384711
-7.910059445062408e-07,0.0,1759204151712414966
2.6084961385330318e-06,0.0,1759204151734760334
-1.5812012538783194e-06,0.0,1759204151752232004
-5.911669878659422e-06,0.0,1759204151773211066
2.860477224776812e-05,0.0,1759204151793725668
-4.918708631840808e-06,0.0,1759204151813310658
2.7216783145495602e-05,0.0,1759204151833772639
-8.861841375710079e-06,0.0,1759204151852996192
-1.043621840594466e-05,0.0,1759204151872262352
4.667010005657913e-06,0.0,1759204151894402294
-4.19831396373334e-06,0.0,1759204151912010801
3.741702764211136e-06,0.0,1759204151934106512
-4.783489613632976e-06,0.0,1759204151953018757
-1.4680930435433918e-05,0.0,1759204151973318740
-1.7703607259799584e-06,0.0,1759204151993523182
-1.297961983133693e-05,0.0,1759204152013449108
-5.004477025117213e-07,0.0,1759204152033667157
-1.1932328526271519e-05,0.0,1759204152053224040
-1.1619326213846012e-05,0.0,1759204152072054227
-5.505239187720034e-06,0.0,1759204152094002981
-9.55789492528392e-06,0.0,1759204152112275556
-4.575540826473776e-06,0.0,1759204152134184307
-8.796016530680038e-06,0.0,1759204152152565107
-9.894834140549807e-06,0.0,1759204152172890504
9.75690621864284e-07,0.0,1759204152193647236
-8.232890900377864e-06,0.0,1759204152213750295
2.419657631195784e-06,0.0,1759204152233240749
-7.258242865310138e-06,0.0,1759204152253414699
-7.734753438900212e-06,0.0,1759204152272450365
-1.952219668391632e-06,0.0,1759204152294471953
-6.103656735303771e-06,0.0,1759204152311905368
-2.873994577998996e-06,0.0,1759204152334734189
-6.356910203348425e-06,0.0,1759204152352328382
-7.1819083397439275e-06,0.0,1759204152373510587
-8.332162903624983e-07,0.0,1759204152393414735
-3.2266048280694193e-06,0.0,1759204152412271096
-4.922800980104117e-07,0.0,1759204152434157103
-5.479135720312105e-06,0.0,1759204152453058013
-6.01626320573329e-06,0.0,1759204152472067474
4.175504542161024e-06,0.0,1759204152493254432
-5.37178059319242e-06,0.0,1759204152512993930
4.224668825463747e-06,0.0,1759204152534043565
-6.10459187888053e-06,0.0,1759204152553157007
-6.210335845979527e-06,0.0,1759204152572650361
9.388901330473401e-06,0.0,1759204152594011008
1.2959356653947079e-06,0.0,1759204152612238043
8.043649687246381e-06,0.0,1759204152634723600
-7.073595052043943e-07,0.0,1759204152652307984
-9.793293014638214e-06,0.0,1759204152673168444
-7.537410184523228e-07,0.0,1759204152693816397
-9.319537501881418e-06,0.0,1759204152713560071
-2.089036850632263e-07,0.0,1759204152733736462
-8.682812199437877e-06,0.0,1759204152753242933
-8.449395279474144e-06,0.0,1759204152772562318
6.289196003633485e-06,0.0,1759204152794655072
-5.69369615314025e-06,0.0,1759204152812511942
4.94451178283715e-06,0.0,1759204152834387199
-7.26221101394602e-06,0.0,1759204152852543962
-1.1148177099679403e-05,0.0,1759204152874029885
5.359057529735713e-06,0.0,1759204152893244943
-7.2312121128031755e-06,0.0,1759204152913655707
1.699403121498279e-05,0.0,1759204152933678877
-8.62186017023653e-06,0.0,1759204152953218781
-1.0648209071084369e-05,0.0,1759204152972714608
2.671103222839939e-06,0.0,1759204152994465572
-8.113258548120029e-06,0.0,1759204153011959468
1.719451550323753e-05,0.0,1759204153033169742
-1.1110310693050616e-05,0.0,1759204153053239254
-1.3757086170008212e-05,0.0,1759204153073638982
1.7471073612372697e-06,0.0,1759204153093229758
-4.376949772371472e-06,0.0,1759204153112639005
2.120921498658958e-06,0.0,1759204153134168657
-4.643270751815711e-06,0.0,1759204153152583704
-1.2297160176890206e-05,0.0,1759204153172969340
-6.7428768890882945e-06,0.0,1759204153193421067
-1.1257054892198186e-05,0.0,1759204153212862584
-5.743872184650727e-06,0.0,1759204153233776456
-9.970277929109686e-06,0.0,1759204153253157622
-9.33265719978301e-06,0.0,1759204153272292913
-6.386745564165618e-06,0.0,1759204153294352489
-6.9454891181389985e-06,0.0,1759204153311981884
-7.584028369650351e-06,0.0,1759204153333619119
-5.275417913156471e-06,0.0,1759204153353361139
-6.281406933157223e-06,0.0,1759204153373202401
1.930001946670084e-05,0.0,1759204153393602148
-4.289333471740289e-06,0.0,1759204153413349677
-6.595531378041639e-06,0.0,1759204153432251154
-3.332045872167984e-06,0.0,1759204153454023945
-4.783540145682219e-06,0.0,1759204153472344527
3.5939488230290238e-06,0.0,1759204153494604724
-4.92458962248338e-06,0.0,1759204153511991952
4.024420974380666e-06,0.0,1759204153534568160
-6.0403378448431316e-06,0.0,1759204153552287577
-9.288950313220799e-06,0.0,1759204153573070203
-7.569053728459744e-06,0.0,1759204153593832238
-8.51243294917907e-06,0.0,1759204153613269844
-8.029690438857102e-06,0.0,1759204153632635847
-6.992888091110809e-06,0.0,1759204153654919804
-6.6355441554792364e-06,0.0,1759204153672395181
-3.329983790936983e-06,0.0,1759204153693998471
-5.61620658770794e-06,0.0,1759204153713373428
-5.253403237075959e-06,0.0,1759204153732334563
-4.2360062101618265e-06,0.0,1759204153754432387
-4.5462822870795e-06,0.0,1759204153773404389
8.885138133530405e-06,0.0,1759204153793745236
2.5897401677958024e-06,0.0,1759204153812531635
9.096137120481066e-06,0.0,1759204153834024318
1.8164315844418949e-06,0.0,1759204153852534317
-5.9837397205345024e-06,0.0,1759204153873664114
1.698538498529603e-05,0.0,1759204153893680080
-5.4739031215660365e-06,0.0,1759204153912925492
-6.408247322482981e-06,0.0,1759204153932988623
-4.233456858040912e-06,0.0,1759204153954373656
-5.462128708521292e-06,0.0,1759204153973035327
4.762277907222259e-06,0.0,1759204153994332503
-1.0588639984492089e-06,0.0,1759204154011982963
-7.159520943517344e-06,0.0,1759204154033160331
3.6804488597124164e-07,0.0,1759204154053639137
-6.66251727065916e-06,0.0,1759204154073351790
1.4608426350282356e-05,0.0,1759204154093674826
-5.8698856589307755e-06,0.0,1759204154113298478
1.4283124711736444e-05,0.0,1759204154133361341
-7.129936716716867e-06,0.0,1759204154152904542
-7.925346444676804e-06,0.0,1759204154172013797
1.2474013526878314e-06,0.0,1759204154194661068
-7.243416985850608e-06,0.0,1759204154212132067
-9.579859639882547e-06,0.0,1759204154234018109
-1.8861848800044927e-06,0.0,1759204154253504104
-8.238847952736555e-06,0.0,1759204154273334556
3.228100507688841e-06,0.0,1759204154293247741
-5.994952914932592e-06,0.0,1759204154312980371
-7.312885084873983e-06,0.0,1759204154332651596
-4.500549646085144e-06,0.0,1759204154354216043
-6.326626159538164e-06,0.0,1759204154372936036
8.7534259093519e-07,0.0,1759204154394640049
-5.2177018144646205e-06,0.0,1759204154412010170
1.2100608347391376e-05,0.0,1759204154433192778
-6.5999052363316075e-06,0.0,1759204154453399414
-8.465004142735628e-06,0.0,1759204154473528606
1.963995811550997e-06,0.0,1759204154494063199
-2.719312092564215e-06,0.0,1759204154512064366
-7.596863961858625e-06,0.0,1759204154533649149
-7.801972881894441e-07,0.0,1759204154553118927
-6.38973219629561e-06,0.0,1759204154573651433
1.1486833510413021e-05,0.0,1759204154594137660
-6.16261528896631e-06,0.0,1759204154613352412
1.0796412395579826e-05,0.0,1759204154633569943
-7.176789387106065e-06,0.0,1759204154653156085
-7.729454177518348e-06,0.0,1759204154672267727
1.3530329754998675e-07,0.0,1759204154694834135
-4.2031381976735996e-06,0.0,1759204154712354987
1.7664796199753667e-07,0.0,1759204154734211371
-4.190126777265643e-06,0.0,1759204154752645083
-9.145281115744955e-06,0.0,1759204154772879217
8.112355198556828e-06,0.0,1759204154793109497
-7.5443148210562305e-06,0.0,1759204154812984583
8.457198265800342e-06,0.0,1759204154833372720
-8.196765713221511e-06,0.0,1759204154852829181
-8.55981760077851e-06,0.0,1759204154872273167
-1.028699703199562e-06,0.0,1759204154894590689
-7.346871758782082e-06,0.0,1759204154912510321
-9.167061465033789e-06,0.0,1759204154933217115
3.927338683353855e-06,0.0,1759204154953579885
-7.844057207743793e-06,0.0,1759204154973089951
2.3045087651403704e-07,0.0,1759204154993522706
-7.081247945481943e-06,0.0,1759204155013086611
1.231705059405845e-06,0.0,1759204155033401073
-6.4128087914369225e-06,0.0,1759204155053546765
-7.521285675982842e-06,0.0,1759204155072231491
7.0013619913874205e-06,0.0,1759204155093598668
-6.242145732101318e-06,0.0,1759204155114477680
7.4611314415170455e-06,0.0,1759204155134398502
-3.8645708413004975e-06,0.0,1759204155152539613
-7.777628302046618e-06,0.0,1759204155173341000
-1.758148255966864e-07,0.0,1759204155193392567
-3.5822239215534806e-06,0.0,1759204155212090378
-3.0823614430629357e-07,0.0,1759204155234766776
-3.906238965917034e-06,0.0,1759204155252590488
-7.826182016943372e-06,0.0,1759204155273134072
6.048451181496057e-06,0.0,1759204155293546800
-6.636789943991994e-06,0.0,1759204155313304982
2.681650573534572e-05,0.0,1759204155333642333
-6.925132822603795e-06,0.0,1759204155352903293
-8.47031499368394e-06,0.0,1759204155372769460
-2.467739202131615e-05,0.0,1759204155394631285
-1.5602087153139673e-05,0.0,1759204155411984310
-2.0911153353086618e-05,0.0,1759204155433995033
-1.1820302038905885e-05,0.0,1759204155452406887
-2.3697622895408336e-06,0.0,1759204155473675815
-2.926052803533009e-05,0.0,1759204155493449991
-2.1375439004455595e-06,0.0,1759204155513253706
-2.728407664861802e-05,0.0,1759204155533161879
5.819791227001134e-07,0.0,1759204155553039612
2.4625932466841043e-06,0.0,1759204155572144003
-8.789874170567071e-06,0.0,1759204155594409068
2.779970926482815e-06,0.0,1759204155612084831
3.7457157768505084e-06,0.0,1759204155633961963
6.3581354374996155e-06,0.0,1759204155652327552
6.964965756878857e-06,0.0,1759204155673034429
3.565823705769414e-06,0.0,1759204155693263641
5.596439293689338e-06,0.0,1759204155713007256
2.699236971045001e-06,0.0,1759204155733662446
4.870153672617001e-06,0.0,1759204155753342981
4.932134464179284e-06,0.0,1759204155772205376
-1.9886074003915442e-05,0.0,1759204155793540232
4.360488481213614e-06,0.0,1759204155813337312
-3.248989993919982e-06,0.0,1759204155834541433
5.0696301829213255e-06,0.0,1759204155852766630
6.335417721335291e-06,0.0,1759204155872546154
-4.825332523913309e-06,0.0,1759204155894437558
1.831869349234301e-06,0.0,1759204155912042525
-3.893685929638093e-06,0.0,1759204155934492520
2.885232630806357e-06,0.0,1759204155952484876
1.0171990081816653e-05,0.0,1759204155973223874
2.666354816078183e-05,0.0,1759204155993651158
9.669133309838915e-06,0.0,1759204156012768070
2.412600271756984e-05,0.0,1759204156033538543
5.869608444327549e-06,0.0,1759204156053243208
4.080712828485567e-06,0.0,1759204156072469927
1.0697283330135442e-05,0.0,1759204156094308918
5.543797402522968e-06,0.0,1759204156112082813
8.690444738387302e-06,0.0,1759204156134367243
3.5059484959627038e-06,0.0,1759204156152079731
-1.7932152140386878e-06,0.0,1759204156173154741
1.3813684646415924e-05,0.0,1759204156193665947
-2.155994626206621e-06,0.0,1759204156212976225
1.249495549448078e-05,0.0,1759204156233636745
-3.842267799807278e-06,0.0,1759204156253189367
-4.6068794261343195e-06,0.0,1759204156272144061
2.3880109646432675e-06,0.0,1759204156294084640
-4.024151515056993e-06,0.0,1759204156312003650
1.6210713320357814e-06,0.0,1759204156334239902
-4.8154944464098905e-06,0.0,1759204156352261070
-6.812536072414544e-06,0.0,1759204156373666206
1.7789228690141385e-06,0.0,1759204156393612993
-4.842707024010674e-06,0.0,1759204156413837325
2.747879291985465e-06,0.0,1759204156433113873
-4.15031280936033e-06,0.0,1759204156453412913
-5.265390108346622e-06,0.0,1759204156472536449
8.77518166466492e-06,0.0,1759204156493673027
-5.405799535921348e-06,0.0,1759204156512781740
-9.106677430491372e-06,0.0,1759204156534254336
-6.768920068325607e-06,0.0,1759204156552017765
-5.531254035502122e-06,0.0,1759204156573098951
3.005791355737177e-06,0.0,1759204156593515806
-4.4665387526995487e-07,0.0,1759204156612654521
1.3845792299851093e-05,0.0,1759204156633987864
4.058114566550595e-06,0.0,1759204156652234650
-6.279756903129239e-06,0.0,1759204156673319020
2.7871704069819635e-05,0.0,1759204156693495628
-5.441519383781102e-06,0.0,1759204156713161812
2.6263465932865033e-05,0.0,1759204156733567290
-8.531237685671479e-06,0.0,1759204156753169542
-1.0100248703813808e-05,0.0,1759204156772311246
-5.638562400556881e-06,0.0,1759204156794136695
-8.280955617986527e-06,0.0,1759204156812073359
-4.884785686870586e-06,0.0,1759204156834590068
-7.645841478405136e-06,0.0,1759204156852335882
-1.0636466390069557e-05,0.0,1759204156873400972
2.055524869877358e-06,0.0,1759204156893635774
-8.812171225018237e-06,0.0,1759204156913475794
-1.7602788196616456e-05,0.0,1759204156933547989
-9.299650776222346e-06,0.0,1759204156953055298
-7.882441785188095e-06,0.0,1759204156972449463
9.688593803681586e-06,0.0,1759204156994913248
-4.3624036285807825e-06,0.0,1759204157011952067
7.368953665618829e-06,0.0,1759204157034060924
-6.189707098286713e-06,0.0,1759204157052549180
-1.1033150799812485e-05,0.0,1759204157072878799
6.356062529258155e-06,0.0,1759204157093354860
-8.132986137358715e-06,0.0,1759204157113178331
1.928221633563694e-05,0.0,1759204157133107857
-8.2493477885569e-06,0.0,1759204157153570077
-1.0791534591296487e-05,0.0,1759204157172451182
1.4717086156001426e-06,0.0,1759204157193479938
-1.0377489343691015e-05,0.0,1759204157213087065
-6.894499160653728e-06,0.0,1759204157234498635
-9.548902236121982e-06,0.0,1759204157252209528
-9.906120130787916e-06,0.0,1759204157273354691
-3.905357224997577e-06,0.0,1759204157293439805
-5.746701072408065e-06,0.0,1759204157312215632
-3.05227937591426e-06,0.0,1759204157334585507
-5.264020868824912e-06,0.0,1759204157352088625
-7.556135164411313e-06,0.0,1759204157373447973
2.3426810459080966e-05,0.0,1759204157393233043
-4.270360235862632e-06,0.0,1759204157413388769
2.375283469987553e-05,0.0,1759204157433476978
-6.586494526416905e-06,0.0,1759204157453164282
-8.065565700313704e-06,0.0,1759204157472076927
4.749371428269258e-06,0.0,1759204157494316865
-2.827137378577691e-06,0.0,1759204157512128817
3.999074499707585e-06,0.0,1759204157534163252
-3.770336400534206e-06,0.0,1759204157552265333
-1.203169471712599e-05,0.0,1759204157573410382
1.6383523773654605e-05,0.0,1759204157593658534
-1.0667904632606978e-05,0.0,1759204157612951937
1.5635261462207708e-05,0.0,1759204157633474248
-1.1933845408328855e-05,0.0,1759204157653282247
-1.2710863218469165e-05,0.0,1759204157672559407
1.3494561841193527e-08,0.0,1759204157694348595
-1.0719593936394876e-05,0.0,1759204157712274824
-5.108299251572435e-07,0.0,1759204157734575214
-1.1616145174448943e-05,0.0,1759204157752235017
-1.4796335965458797e-05,0.0,1759204157773496981
-1.120159495706421e-05,0.0,1759204157793459581
-1.292665760866506e-05,0.0,1759204157812837998
-9.262355329529669e-06,0.0,1759204157833263060
-1.0782742797734379e-05,0.0,1759204157853845760
-1.029207729726787e-05,0.0,1759204157872289497
-4.276082000348662e-06,0.0,1759204157893247529
-8.630416025206821e-06,0.0,1759204157912807252
-6.342361386380002e-06,0.0,1759204157934446644
-7.378294238343931e-06,0.0,1759204157952491075
-7.31326444149778e-06,0.0,1759204157973364310
-3.941063051002316e-06,0.0,1759204157993098579
-4.653708297025053e-06,0.0,1759204158012652555
7.763999950792702e-06,0.0,1759204158033983763
1.0125636419537743e-06,0.0,1759204158052428140
-6.264547869072157e-06,0.0,1759204158073413800
1.931919533925707e-05,0.0,1759204158093310270
-4.928755222038862e-06,0.0,1759204158112986831
-6.081809265879798e-06,0.0,1759204158132699961
-3.7789948042709882e-06,0.0,1759204158154460406
-5.3170928586936755e-06,0.0,1759204158172313339
5.053579663813981e-06,0.0,1759204158195056322
-1.3109878043374419e-06,0.0,1759204158213303812
-8.358249533725924e-06,0.0,1759204158233484336
3.340332703960492e-07,0.0,1759204158253093371
-7.263879968771522e-06,0.0,1759204158273231182
1.6529489342305816e-05,0.0,1759204158293377758
-6.120122482136757e-06,0.0,1759204158313064507
1.577594951518812e-05,0.0,1759204158333621386
-7.635908912733713e-06,0.0,1759204158353355747
-8.56632710844465e-06,0.0,1759204158372202610
1.575990589047097e-06,0.0,1759204158395031175
-7.876345171053295e-06,0.0,1759204158412644364
-1.066325243501276e-05,0.0,1759204158433537822
-2.1263055228002867e-06,0.0,1759204158453148461
-9.19133095519575e-06,0.0,1759204158473011345
3.2354270436414736e-06,0.0,1759204158493515761
-6.9510003195057244e-06,0.0,1759204158513374088
-8.463646614726673e-06,0.0,1759204158532427755
-5.338728638899764e-06,0.0,1759204158554437546
-7.430279139367482e-06,0.0,1759204158572340997
1.3093358999226764e-05,0.0,1759204158593737583
-8.034733543442032e-06,0.0,1759204158612916429
-8.178353254196916e-06,0.0,1759204158633678392
-9.685662053615441e-06,0.0,1759204158653207468
-9.043749822882468e-06,0.0,1759204158673168439
-7.987989442269955e-06,0.0,1759204158694197805
-7.297933500192289e-06,0.0,1759204158712986254
-6.701833506193874e-06,0.0,1759204158734218328
-5.897524729672982e-06,0.0,1759204158753173731
-5.434689011217069e-06,0.0,1759204158773695711
-4.514341051271874e-06,0.0,1759204158794340813
-4.422089261065048e-06,0.0,1759204158813654198
-3.623241716233558e-06,0.0,1759204158834653296
-3.635148969304901e-06,0.0,1759204158853647186
-3.2999302890892837e-06,0.0,1759204158872550619
-2.8100890734403945e-06,0.0,1759204158894615334
-2.624847106640571e-06,0.0,1759204158912024647
-2.2773582020153743e-06,0.0,1759204158934449355
-2.145957499788841e-06,0.0,1759204158952636676
-2.049140327527532e-06,0.0,1759204158973033125
3.904971138756412e-05,0.0,1759204158993529806
-1.0776199723252849e-07,0.0,1759204159013388887
3.878202574419717e-05,0.0,1759204159033252382
-3.5370632006259903e-06,0.0,1759204159052998997
-6.149876501482922e-06,0.0,1759204159071927127
1.0870274234920062e-05,0.0,1759204159094390909
-5.754810146817031e-06,0.0,1759204159112673576
8.67051302191875e-06,0.0,1759204159134307451
-8.375672312436504e-06,0.0,1759204159152298244
-1.3963457476090044e-05,0.0,1759204159173609285
3.3021299258510006e-06,0.0,1759204159193725928
-1.2700670416410568e-05,0.0,1759204159213428038
-3.36842515497937e-06,0.0,1759204159234198087
-1.1996492054216239e-05,0.0,1759204159252961992
-1.2674780640188828e-05,0.0,1759204159272248900
5.627159294319426e-06,0.0,1759204159293540464
-1.1630764049362389e-05,0.0,1759204159312935459
-1.4714017433797023e-05,0.0,1759204159333808157
-1.2130642505192242e-05,0.0,1759204159353177782
-1.0835021003967051e-05,0.0,1759204159372537359
-8.334022289963432e-07,0.0,1759204159394647936
-5.008085491869357e-06,0.0,1759204159412047075
-4.3814280874692334e-07,0.0,1759204159434314571
-4.8324406077607255e-06,0.0,1759204159452361360
-9.649870362205795e-06,0.0,1759204159473076277
7.465889360607156e-06,0.0,1759204159493737990
-8.611591497540227e-06,0.0,1759204159513215648
7.609203997056494e-06,0.0,1759204159533650392
-8.90531843013749e-06,0.0,1759204159553447457
-9.232761099007634e-06,0.0,1759204159572300693
-1.3589012028510188e-06,0.0,1759204159594164830
-5.194544660124685e-06,0.0,1759204159612246616
-1.006495115620728e-06,0.0,1759204159634388821
-5.130171422091891e-06,0.0,1759204159652249845
-9.608840268961512e-06,0.0,1759204159672868906
6.665747995822697e-06,0.0,1759204159693320632
-7.592245834671193e-06,0.0,1759204159713746521
8.002313301803255e-06,0.0,1759204159733592733
-7.7362892445368e-06,0.0,1759204159753047462
-8.0749666513513e-06,0.0,1759204159772473530
-8.25830769695563e-07,0.0,1759204159794402226
-6.766878427190276e-06,0.0,1759204159812443839
-8.327597075798046e-07,0.0,1759204159834377144
-6.9315859144312475e-06,0.0,1759204159852539590
-8.701930618649025e-06,0.0,1759204159873870269
-1.352925827194162e-07,0.0,1759204159893749470
-6.616902258492797e-06,0.0,1759204159913408563
6.12353012839468e-06,0.0,1759204159933748776
-6.872913728950959e-06,0.0,1759204159953344371
-7.709534285097078e-06,0.0,1759204159972675730
1.0536068891975568e-05,0.0,1759204159993083247
-6.419177122935858e-06,0.0,1759204160012815681
7.417637683132716e-06,0.0,1759204160033472261
-7.482784754249378e-06,0.0,1759204160053147671
-7.810898813213774e-06,0.0,1759204160072336209
-1.2594954962623178e-06,0.0,1759204160094288333
-4.441924543261985e-06,0.0,1759204160112701531
-8.665503737884023e-07,0.0,1759204160134609841
-4.315062595267486e-06,0.0,1759204160152648144
-8.106261440699876e-06,0.0,1759204160173345047
5.7155978723963495e-06,0.0,1759204160193640309
-6.706614737030839e-06,0.0,1759204160213607472
6.158329244361036e-06,0.0,1759204160234006272
-7.386575383641023e-06,0.0,1759204160253104995
-7.611656490818226e-06,0.0,1759204160272092585
-1.641823322288639e-06,0.0,1759204160295006099
-4.793488534985923e-06,0.0,1759204160312176459
-1.4190585779289365e-06,0.0,1759204160334481008
-4.652094342893493e-06,0.0,1759204160352206333
-7.988880489971524e-06,0.0,1759204160373691903
5.312263863989274e-06,0.0,1759204160393188469
-6.1758300991453435e-06,0.0,1759204160413035960
5.592264070290709e-06,0.0,1759204160433602262
-6.5875949016408425e-06,0.0,1759204160453117895
-6.796344017494307e-06,0.0,1759204160472523767
-1.0740715829238521e-06,0.0,1759204160494421999
-5.67668990161371e-06,0.0,1759204160512479475
-9.573864004186021e-07,0.0,1759204160534141305
-5.595211775469384e-06,0.0,1759204160552536788
-7.026999708159814e-06,0.0,1759204160572997353
-2.478925794957134e-07,0.0,1759204160593427923
-5.467806662806137e-06,0.0,1759204160612914737
2.6790947997269514e-07,0.0,1759204160633544520
-5.2052130976214606e-06,0.0,1759204160652940238
-5.862447258335863e-06,0.0,1759204160672302715
-1.434384349710053e-05,0.0,1759204160693618815
-5.529966092221415e-06,0.0,1759204160713875473
-1.3762626807472182e-05,0.0,1759204160733592919
-3.696495185221078e-06,0.0,1759204160753094987
-2.6916778960832666e-06,0.0,1759204160772798027
1.4756374940999662e-05,0.0,1759204160794544890
5.697549480676139e-06,0.0,1759204160812154377
1.2691323777735977e-05,0.0,1759204160834217079
3.327117273834802e-06,0.0,1759204160852299552
-6.541934349950445e-06,0.0,1759204160873280889
2.4215498362333115e-05,0.0,1759204160893484919
-5.297412678000168e-06,0.0,1759204160913476462
2.4008436923567765e-05,0.0,1759204160933541100
-7.081155674923245e-06,0.0,1759204160953248097
-8.540107655804132e-06,0.0,1759204160972591688
-5.3892323395568036e-06,0.0,1759204160994292710
-7.325630030515834e-06,0.0,1759204161012485768
-4.582798326948752e-06,0.0,1759204161034247903
-6.59586778169465e-06,0.0,1759204161052253728
-8.80914765790956e-06,0.0,1759204161073440688
1.3608583053277092e-06,0.0,1759204161093212271
-6.672704780255814e-06,0.0,1759204161113849908
2.753371655681959e-06,0.0,1759204161133611370
-6.095143922461309e-06,0.0,1759204161153555306
-6.1524248179248925e-06,0.0,1759204161172535554
-1.868856507962636e-06,0.0,1759204161194582903
-5.278045265426095e-06,0.0,1759204161212008017
-1.794571081576891e-06,0.0,1759204161234443074
-5.192421056716512e-06,0.0,1759204161252366566
-6.10558924805455e-06,0.0,1759204161273342746
-1.25196332817662e-05,0.0,1759204161293769764
-6.2272398318595475e-06,0.0,1759204161313345801
-1.113056400374542e-05,0.0,1759204161333199666
-4.740662561785206e-06,0.0,1759204161353474550
-3.0576736993588556e-06,0.0,1759204161372595537
6.087206507980591e-06,0.0,1759204161393624773
-1.8752758659679677e-06,0.0,1759204161413000192
6.256878406528437e-06,0.0,1759204161433892873
-2.797381128283738e-06,0.0,1759204161453211045
-3.134566880213911e-06,0.0,1759204161472656761
8.141203254619814e-07,0.0,1759204161494653596
-1.3696281204446647e-06,0.0,1759204161512523054
7.40438364592988e-07,0.0,1759204161534208240
-1.5119576841267815e-06,0.0,1759204161552418042
-3.9855865300027745e-06,0.0,1759204161573053310
4.578948668706903e-06,0.0,1759204161593197746
-3.142483977317506e-06,0.0,1759204161613466256
4.9725247736264895e-06,0.0,1759204161633150016
-3.225492399974679e-06,0.0,1759204161653031765
-3.499205274591186e-06,0.0,1759204161672137245
1.7492799109940462e-07,0.0,1759204161694466846
-1.8407065815445417e-06,0.0,1759204161712086471
-3.872363948751211e-06,0.0,1759204161733855211
-8.602623801924594e-07,0.0,1759204161753419377
-3.3559975027834193e-06,0.0,1759204161773066555
4.615395087481003e-06,0.0,1759204161793182991
-2.6355344720362963e-06,0.0,1759204161813323079
2.496317107427882e-05,0.0,1759204161833734070
-2.2901172337093838e-06,0.0,1759204161853851712
-3.980080129508737e-06,0.0,1759204161872341701
7.98588096310773e-06,0.0,1759204161894692312
-3.760145393480806e-06,0.0,1759204161912576989
5.884589855195258e-06,0.0,1759204161935020303
-6.340734876615437e-06,0.0,1759204161952355449
-1.0226467423349724e-05,0.0,1759204161973277851
-6.717339091775608e-06,0.0,1759204161993676441
-9.244443058625966e-06,0.0,1759204162013128951
-5.5541159420393586e-06,0.0,1759204162033199124
-7.822156508764376e-06,0.0,1759204162053508211
-7.69712840508908e-06,0.0,1759204162072324131
1.8183612921123027e-05,0.0,1759204162093588073
-6.739862991832578e-06,0.0,1759204162113144292
-7.810071049120071e-06,0.0,1759204162132330949
-5.21669121912046e-06,0.0,1759204162154478495
-6.683634163652914e-06,0.0,1759204162172544314
-5.595935295036205e-06,0.0,1759204162194079102
-6.463642330476579e-06,0.0,1759204162212124165
-4.836315721355974e-06,0.0,1759204162234566076
-5.71872343640366e-06,0.0,1759204162252257902
-6.755750922072115e-06,0.0,1759204162272947550
-1.4909874645060557e-06,0.0,1759204162294660309
-6.195495157447988e-06,0.0,1759204162312858105
-5.910272152702518e-06,0.0,1759204162332550236
-4.986891406379232e-06,0.0,1759204162354656226
-4.868198701315485e-06,0.0,1759204162372672978
-2.257055261951145e-06,0.0,1759204162393906165
-3.1890878079635534e-06,0.0,1759204162412427712
-4.270341092231404e-06,0.0,1759204162433285253
-2.314253471261326e-06,0.0,1759204162453618217
-3.6139993342129305e-06,0.0,1759204162473618923
1.459561304993511e-06,0.0,1759204162493384578
-2.8460944122724357e-06,0.0,1759204162513511180
1.6927424620718563e-06,0.0,1759204162534039895
-2.9298065583068196e-06,0.0,1759204162553452323
-2.9757448463894484e-06,0.0,1759204162572441549
-7.579606777821335e-07,0.0,1759204162594369543
-2.4913547216519904e-06,0.0,1759204162612364239
-2.9372890518284618e-06,0.0,1759204162633824461
-1.1333396218021729e-06,0.0,1759204162653216284
-2.4531684206641897e-06,0.0,1759204162673327965
1.7764624361690703e-06,0.0,1759204162693374913
-1.92270992055095e-06,0.0,1759204162713696447
-2.182444215098772e-06,0.0,1759204162732778007
-1.5051839895337547e-06,0.0,1759204162754597690
-1.8768853256070664e-06,0.0,1759204162772496045
2.422974411300477e-06,0.0,1759204162793789620
-1.8938616637734056e-06,0.0,1759204162813047047
2.159061131125598e-06,0.0,1759204162833619584
-1.9887722379483295e-06,0.0,1759204162853810175
-2.1042590108160918e-06,0.0,1759204162872620011
-1.923279574179408e-07,0.0,1759204162894826841
-1.1916405611088141e-06,0.0,1759204162912626742
-2.2374466520310346e-06,0.0,1759204162933857960
6.575492430727045e-06,0.0,1759204162953359329
-1.3085183577313526e-06,0.0,1759204162973325938
2.014421110781401e-06,0.0,1759204162993144085
-2.0534748623378996e-06,0.0,1759204163012997257
1.3816902278583411e-06,0.0,1759204163033673325
-2.2782991315575516e-06,0.0,1759204163053243763
-2.3164021672966185e-06,0.0,1759204163072250967
-6.379258973694513e-07,0.0,1759204163094821769
-1.4647722647421784e-06,0.0,1759204163112319633
-5.297584576197405e-07,0.0,1759204163134546860
-1.3994395865053836e-06,0.0,1759204163152245271
-2.325985825683792e-06,0.0,1759204163173134044
1.4306153033918417e-06,0.0,1759204163193383562
-1.910593840554079e-06,0.0,1759204163213232947
1.5937568116568065e-06,0.0,1759204163233304092
-1.9130361857334382e-06,0.0,1759204163253063946
-1.975907896606448e-06,0.0,1759204163272353995
-3.2579222221421386e-07,0.0,1759204163294525860
-1.7060030260184977e-06,0.0,1759204163312062963
-3.751385656761464e-07,0.0,1759204163334636222
-1.7643859735256865e-06,0.0,1759204163352433496
-2.1688120794683107e-06,0.0,1759204163372967247
-1.845389144639549e-07,0.0,1759204163393078289
-1.6119763761077342e-06,0.0,1759204163413389106
1.0473348704588532e-07,0.0,1759204163433084555
-1.413027012688434e-06,0.0,1759204163453191717
-1.6080938396278023e-06,0.0,1759204163472665908
1.5999880899240054e-06,0.0,1759204163493776818
-1.4690065548899708e-06,0.0,1759204163513526678
1.6818276646219989e-06,0.0,1759204163533621934
-1.5409534128067245e-06,0.0,1759204163553244826
-1.6207344995521032e-06,0.0,1759204163572247300
-1.4673434125576897e-07,0.0,1759204163594649897
-9.122558795463374e-07,0.0,1759204163612107251
-1.229616476694704e-07,0.0,1759204163634635253
-9.414600206271062e-07,0.0,1759204163652060118
-1.786678446631941e-06,0.0,1759204163673165549
1.367407762313629e-06,0.0,1759204163693355448
-1.4103904441574051e-06,0.0,1759204163713688008
2.233013218454753e-05,0.0,1759204163733555993
1.0756924643512937e-07,0.0,1759204163753842244
-1.5178700761244154e-06,0.0,1759204163772015293
-1.876291082174216e-06,0.0,1759204163794378254
-2.4810551781390092e-06,0.0,1759204163812154680
-1.9045689593524766e-06,0.0,1759204163834750151
-2.3714700814803455e-06,0.0,1759204163852297971
-2.887803514185442e-06,0.0,1759204163873220328
1.993886465215075e-05,0.0,1759204163893629452
-1.5023888727492859e-06,0.0,1759204163913479941
1.9651400286669762e-05,0.0,1759204163933664695
-3.4568218950968608e-06,0.0,1759204163953368554
-4.747934082095656e-06,0.0,1759204163972267979
-2.6378659017261566e-05,0.0,1759204163994091909
-9.19616360964291e-06,0.0,1759204164012496934
-2.2349508441609553e-05,0.0,1759204164034004485
-4.57051954308552e-06,0.0,1759204164052472127
2.4154332026691354e-06,0.0,1759204164073090102
-1.7666750887807102e-05,0.0,1759204164093367921
9.244587783397877e-07,0.0,1759204164113134141
-1.6195337751552603e-05,0.0,1759204164133504746
3.031652455106512e-06,0.0,1759204164152983007
6.5222772203511334e-06,0.0,1759204164172587660
-6.988167104161792e-06,0.0,1759204164194377243
4.997294900634807e-06,0.0,1759204164212194195
-2.716613967549775e-05,0.0,1759204164233803723
1.0829825076702697e-05,0.0,1759204164253095019
1.2334503338978987e-05,0.0,1759204164272427466
-4.030662353010999e-06,0.0,1759204164294268977
5.212423799168796e-06,0.0,1759204164312037155
-3.0541747807997083e-06,0.0,1759204164334862546
6.6035115338850255e-06,0.0,1759204164352433661
1.6581488632164606e-05,0.0,1759204164373526476
-1.997554185818801e-05,0.0,1759204164393130540
1.2261061574784856e-05,0.0,1759204164413241142
-2.016908117581046e-05,0.0,1759204164433812831
1.4687153109207035e-05,0.0,1759204164453193361
1.5665995155019005e-05,0.0,1759204164472442744
-1.0172035122102377e-05,0.0,1759204164494672825
4.113894845898055e-06,0.0,1759204164512180624
-8.441578004407489e-06,0.0,1759204164534446096
6.3648909102814115e-06,0.0,1759204164552204257
2.170099738152497e-05,0.0,1759204164573365051
3.052829393302307e-05,0.0,1759204164593269583
2.0970817298867206e-05,0.0,1759204164612917168
2.7589290243923015e-05,0.0,1759204164633615338
1.618858092514503e-05,0.0,1759204164653546198
1.3454100559442158e-05,0.0,1759204164672046268
6.111738435741819e-06,0.0,1759204164694128255
9.565063496134866e-06,0.0,1759204164712075150
5.8643074676107e-06,0.0,1759204164734938100
9.13486784457531e-06,0.0,1759204164752304393
9.7372229119807e-06,0.0,1759204164772901809
3.000452694140351e-06,0.0,1759204164793339102
7.412042863852673e-06,0.0,1759204164813500889
1.4964614767905134e-06,0.0,1759204164833394306
6.50003980542364e-06,0.0,1759204164853052900
6.984897940594354e-06,0.0,1759204164872287997
-3.828383805166602e-06,0.0,1759204164893530746
6.203403905978292e-06,0.0,1759204164913449174
-2.4509918743535326e-05,0.0,1759204164933828909
5.725999742042444e-06,0.0,1759204164953509860
9.197977236161875e-06,0.0,1759204164972904803
-7.721025684708012e-06,0.0,1759204164993193593
-8.014888561335653e-08,0.0,1759204165012722275
-6.906443086894142e-06,0.0,1759204165034864321
1.8382624537138056e-06,0.0,1759204165052378641
1.0945256649159086e-05,0.0,1759204165073105613
-1.849945234591407e-05,0.0,1759204165093635463
1.0284788059389157e-05,0.0,1759204165112878514
-1.7128258749791832e-05,0.0,1759204165133655264
1.2371239598437466e-05,0.0,1759204165153170576
1.323910163344103e-05,0.0,1759204165172194471
2.089153675741503e-05,0.0,1759204165194210268
1.6049795529509514e-05,0.0,1759204165212285864
1.7648942980435827e-05,0.0,1759204165234782469
1.260512697528283e-05,0.0,1759204165252232511
7.557784373025106e-06,0.0,1759204165273124047
1.8680385260232e-05,0.0,1759204165293614625
5.800181611783723e-06,0.0,1759204165313236270
1.6209780417562656e-05,0.0,1759204165333650552
3.2254087487734237e-06,0.0,1759204165353303411
2.0326259524513728e-06,0.0,1759204165372259699
1.700594601177649e-05,0.0,1759204165394382558
2.814164149586121e-06,0.0,1759204165412317152
1.3499607815102518e-05,0.0,1759204165434598293
-1.108026816470084e-06,0.0,1759204165452208273
-6.235146978220985e-06,0.0,1759204165473166114
1.0550667203326803e-05,0.0,1759204165493438322
-4.318309056774589e-06,0.0,1759204165513110067
1.0265627761136846e-05,0.0,1759204165533004614
-4.580529842457254e-06,0.0,1759204165553233422
-7.254868210836671e-06,0.0,1759204165572531770
1.6876667873898891e-06,0.0,1759204165594148590
-8.03854357930249e-06,0.0,1759204165612885274
1.1319298614384521e-06,0.0,1759204165633690234
-8.080666354083032e-06,0.0,1759204165653010485
-8.514416400348589e-06,0.0,1759204165673370453
-2.8648332926537876e-06,0.0,1759204165693550819
-4.701339221511262e-06,0.0,1759204165712458975
-2.1161931447632604e-06,0.0,1759204165734285560
-4.2809630313657925e-06,0.0,1759204165752099300
-6.543825668124107e-06,0.0,1759204165773653826
2.9820602305023402e-06,0.0,1759204165793358023
-5.04486313397839e-06,0.0,1759204165813560246
3.6715554752112696e-06,0.0,1759204165833579907
-4.7601765644237535e-06,0.0,1759204165853743695
-4.939119167970468e-06,0.0,1759204165872254866
9.557032604667625e-06,0.0,1759204165894157991
1.8119870996945362e-06,0.0,1759204165912495482
8.25615426912402e-06,0.0,1759204165934885871
-2.6887330396032055e-07,0.0,1759204165952320136
-8.800224685421253e-06,0.0,1759204165973653501
-4.960222561389255e-07,0.0,1759204165993531489
-8.099565416807008e-06,0.0,1759204166013547309
-1.3117993609734163e-07,0.0,1759204166033565914
-7.511430440053134e-06,0.0,1759204166053162394
-7.3058553640052695e-06,0.0,1759204166072803542
-3.345648204031694e-06,0.0,1759204166094291454
-5.998859350775814e-06,0.0,1759204166112320721
-2.8585564344890524e-06,0.0,1759204166134580766
-5.718949871609736e-06,0.0,1759204166152012358
-6.342614094944397e-06,0.0,1759204166173563438
-1.7423884977427756e-06,0.0,1759204166193379155
-4.80185954445281e-06,0.0,1759204166213450026
-1.668544197729e-05,0.0,1759204166233753338
-5.2083342045084906e-06,0.0,1759204166253190073
-3.478610056011639e-06,0.0,1759204166272325060
-8.916654290210076e-06,0.0,1759204166294337251
-3.2209931396363004e-06,0.0,1759204166312340571
-1.4139437197254393e-05,0.0,1759204166334167461
2.7440568865403285e-07,0.0,1759204166353501687
1.2352835373850732e-06,0.0,1759204166372337906
-4.188555642320953e-06,0.0,1759204166394586183
-5.575791984546048e-07,0.0,1759204166412057796
-3.3770538731230083e-06,0.0,1759204166434321240
2.0405506772357285e-07,0.0,1759204166452628898
4.058722908017036e-06,0.0,1759204166473485082
-8.795500136767958e-06,0.0,1759204166493155865
3.184069648363188e-06,0.0,1759204166512848661
3.697058250738418e-06,0.0,1759204166532287666
2.5097497603687007e-06,0.0,1759204166554455613
3.2220853307133673e-06,0.0,1759204166572002959
-1.9176944693737897e-06,0.0,1759204166594670236
1.260000291212924e-06,0.0,1759204166612142671
4.469456133161662e-06,0.0,1759204166633375336
1.880770606745196e-07,0.0,1759204166653038477
3.8187023689005685e-06,0.0,1759204166673406268
-7.659700440932308e-06,0.0,1759204166693928145
3.4121268882392724e-06,0.0,1759204166713391876
-7.325323994433304e-06,0.0,1759204166733817068
4.420279145862447e-06,0.0,1759204166753035070
4.778118668194524e-06,0.0,1759204166772508078
-3.728593029333272e-07,0.0,1759204166794794111
4.249781637629299e-06,0.0,1759204166812359766
5.536131611940007e-06,0.0,1759204166833849238
1.359913118276305e-06,0.0,1759204166853686540
4.768149278428854e-06,0.0,1759204166873726663
-1.720304945880776e-06,0.0,1759204166893034113
3.244141644409892e-06,0.0,1759204166913134416
4.0016082549141345e-06,0.0,1759204166932270846
2.4915524427739794e-06,0.0,1759204166954494550
3.535908442450533e-06,0.0,1759204166972374248
-6.289982492227933e-06,0.0,1759204166994077281
3.944809244514897e-06,0.0,1759204167013052114
-5.76619890949006e-06,0.0,1759204167033685154
4.607733055131286e-06,0.0,1759204167053131211
4.882301133039318e-06,0.0,1759204167072319302
1.8285531041644996e-07,0.0,1759204167094386421
2.544288389310093e-06,0.0,1759204167112711243
5.254707640757437e-06,0.0,1759204167132986507
1.6279866669258812e-06,0.0,1759204167153535520
4.667890685957444e-06,0.0,1759204167173204563
-5.182190478383246e-06,0.0,1759204167193721890
4.109988530479423e-06,0.0,1759204167212976711
-5.083120792294436e-06,0.0,1759204167233456584
4.489931377866255e-06,0.0,1759204167253174230
4.734017373133847e-06,0.0,1759204167272178031
3.543022775812237e-07,0.0,1759204167294316776
2.6209700934561385e-06,0.0,1759204167312139665
2.1851465213366254e-07,0.0,1759204167334018810
2.5687974354819583e-06,0.0,1759204167352310543
5.11383549066997e-06,0.0,1759204167373300400
-4.531914069381668e-06,0.0,1759204167393249730
4.0369793631511575e-06,0.0,1759204167413219668
-4.924337139493232e-06,0.0,1759204167433270876
4.096828595766468e-06,0.0,1759204167453243624
4.351192523106656e-06,0.0,1759204167472073605
2.922316389983822e-07,0.0,1759204167494807468
3.978149183318857e-06,0.0,1759204167511930992
4.928584205747011e-06,0.0,1759204167533634472
8.651961149966683e-06,0.0,1759204167554019362
4.434612515634132e-06,0.0,1759204167572983510
-1.3001708156766103e-06,0.0,1759204167593536349
2.4233757541359017e-06,0.0,1759204167613330278
-5.988628152825204e-06,0.0,1759204167633479836
2.6596251510695103e-06,0.0,1759204167653196890
3.3980310773449583e-06,0.0,1759204167672326549
-6.922646681637228e-06,0.0,1759204167693643009
3.3508270628023675e-06,0.0,1759204167713292771
-4.824392436139719e-06,0.0,1759204167733862750
4.217501434896994e-06,0.0,1759204167753282253
4.983373090426632e-06,0.0,1759204167773309272
1.320216843782799e-07,0.0,1759204167793749247
2.063345259696098e-06,0.0,1759204167812674702
-1.8681544811179202e-09,0.0,1759204167835194358
2.239180618969598e-06,0.0,1759204167852422204
4.517737014194038e-06,0.0,1759204167873642594
-3.975915546517814e-06,0.0,1759204167893536029
3.6781674210062084e-06,0.0,1759204167913241823
-4.254950230756509e-06,0.0,1759204167933179472
3.714830610282146e-06,0.0,1759204167952944516
3.911070182201857e-06,0.0,1759204167972445116
2.94102416743928e-07,0.0,1759204167994515326
2.1704893702420325e-06,0.0,1759204168012180002
2.19682147643292e-07,0.0,1759204168034190707
2.184526648618775e-06,0.0,1759204168052075028
4.196807312452884e-06,0.0,1759204168073708274
-3.2639809977530326e-06,0.0,1759204168094764282
4.031743910424813e-06,0.0,1759204168113392974
-3.2657201210184687e-06,0.0,1759204168133436466
3.981308053105122e-06,0.0,1759204168153266785
4.458980145809982e-06,0.0,1759204168172056534
8.229997328342214e-07,0.0,1759204168194585034
3.612303767424578e-06,0.0,1759204168212033570
1.516896110666316e-06,0.0,1759204168234514445
3.7995516475624664e-06,0.0,1759204168252314350
4.390042401721617e-06,0.0,1759204168273222280
3.1008737976481597e-07,0.0,1759204168293393311
3.3475704378720515e-06,0.0,1759204168312832925
-1.152963632785485e-07,0.0,1759204168333346112
2.9422486372125626e-06,0.0,1759204168353685307
3.367532245885707e-06,0.0,1759204168372471621
-3.41551483046602e-06,0.0,1759204168393501264
3.205805332627897e-06,0.0,1759204168412794040
1.6873220240082694e-05,0.0,1759204168433475648
3.701464898176273e-06,0.0,1759204168452862286
2.498570580934594e-06,0.0,1759204168472625564
8.300836558718223e-06,0.0,1759204168493944884
4.194516802359795e-06,0.0,1759204168512132870
6.829449924062483e-06,0.0,1759204168534517963
2.704508981823319e-06,0.0,1759204168552681173
-1.6725366967620656e-06,0.0,1759204168573631566
-9.008117085692755e-06,0.0,1759204168594131634
-2.023985089373966e-06,0.0,1759204168613053027
-8.510993095060307e-06,0.0,1759204168633401643
-9.837659761477768e-07,0.0,1759204168653323834
-3.655359351449244e-07,0.0,1759204168672201682
-3.2597756883801696e-06,0.0,1759204168694563872
-1.164215703603324e-06,0.0,1759204168712049784
-2.5628152911227846e-06,0.0,1759204168735253050
-4.061523177691929e-07,0.0,1759204168752369214
1.7287582101641352e-06,0.0,1759204168773624494
1.5647717716130428e-05,0.0,1759204168793436663
2.400506848898749e-06,0.0,1759204168812806759
1.4722532658570975e-05,0.0,1759204168833117255
1.1643591211328618e-06,0.0,1759204168853783951
5.9457455272416765e-08,0.0,1759204168872556505
5.637920846288349e-06,0.0,1759204168894341955
-2.633560219838054e-07,0.0,1759204168911917787
4.173687678207867e-06,0.0,1759204168934629335
-1.5488855078209004e-06,0.0,1759204168952656503
-3.6051105729328452e-06,0.0,1759204168973141849
-8.049007835444164e-06,0.0,1759204168993287980
-5.668543744981257e-06,0.0,1759204169012777833
-7.0932446236978475e-06,0.0,1759204169034235503
-2.7486362527022374e-06,0.0,1759204169053091731
-1.710777551128088e-06,0.0,1759204169072538479
-8.63554164278727e-06,0.0,1759204169093257027
-1.1976505703079376e-06,0.0,1759204169113205278
-7.699849554944865e-06,0.0,1759204169134081635
1.8420863344939095e-07,0.0,1759204169153416039
6.955048798117878e-07,0.0,1759204169172494549
-2.525263853324563e-06,0.0,1759204169194291025
-5.257098897450784e-07,0.0,1759204169212752083
-2.177081177770125e-06,0.0,1759204169234327610
-7.161119439995078e-08,0.0,1759204169252303716
2.174390120710362e-06,0.0,1759204169273135907
-4.84171064592962e-06,0.0,1759204169293742741
2.0482561874684244e-06,0.0,1759204169313367227
1.5593834812896574e-05,0.0,1759204169334042117
2.740153204099061e-06,0.0,1759204169353295244
1.6264860911547255e-06,0.0,1759204169372426985
-3.0773338553557833e-06,0.0,1759204169394705034
-1.1524811386158734e-06,0.0,1759204169412257103
-2.791301995239786e-06,0.0,1759204169434400724
-7.175234577817944e-07,0.0,1759204169452819946
1.5089161180034378e-06,0.0,1759204169472951414
-5.096097912788628e-06,0.0,1759204169493907283
1.7079587084879241e-06,0.0,1759204169513020809
-4.644198642212132e-06,0.0,1759204169533573192
2.234595641842533e-06,0.0,1759204169553218754
2.494855681726054e-06,0.0,1759204169572435210
-4.663861289508419e-07,0.0,1759204169595009937
2.2680243290216254e-06,0.0,1759204169612619375
-2.982030495621998e-07,0.0,1759204169633859948
2.342014848772166e-06,0.0,1759204169652436549
3.208910899940087e-06,0.0,1759204169672939637
-3.6465789997412086e-07,0.0,1759204169693667609
2.5014603792684087e-06,0.0,1759204169713397420
-5.675265848615858e-07,0.0,1759204169734091604
2.4972944821382755e-06,0.0,1759204169753219747
2.8891635191545138e-06,0.0,1759204169772692883
-3.231591298768639e-06,0.0,1759204169793575200
2.6855077840948836e-06,0.0,1759204169813006118
-3.1384340241337402e-06,0.0,1759204169833720172
2.909907493217737e-06,0.0,1759204169853655943
3.0627116351556803e-06,0.0,1759204169872677873
2.337502088109523e-07,0.0,1759204169894697956
1.693739509081323e-06,0.0,1759204169912259671
1.7537655150911763e-07,0.0,1759204169934302426
1.6457469832844595e-06,0.0,1759204169952807199
3.3631307265483944e-06,0.0,1759204169972858269
-2.418736890351182e-06,0.0,1759204169993848577
3.0737103017757474e-06,0.0,1759204170013273095
-2.460853759237371e-06,0.0,1759204170033804539
3.376951747066573e-06,0.0,1759204170052903891
3.447183231836368e-06,0.0,1759204170072256892
7.549174078626564e-07,0.0,1759204170094308616
2.0514414265978876e-06,0.0,1759204170112225131
5.678145716189743e-07,0.0,1759204170134033017
1.9240591061645116e-06,0.0,1759204170152343964
3.4301123263227454e-06,0.0,1759204170173118287
-2.178277592730571e-06,0.0,1759204170194063646
3.2561614897386926e-06,0.0,1759204170212867747
-2.077017797524009e-06,0.0,1759204170233625598
3.386914105938805e-06,0.0,1759204170253161588
3.436787646922013e-06,0.0,1759204170272676608
7.808718376649241e-07,0.0,1759204170294280627
2.856623506779654e-06,0.0,1759204170312144907
7.658654156620519e-07,0.0,1759204170334636436
2.9545442777626336e-06,0.0,1759204170352000901
3.514989676637019e-06,0.0,1759204170373608871
4.928488157009226e-07,0.0,1759204170393548706
2.695743598409105e-06,0.0,1759204170413117557
1.8513563175036818e-07,0.0,1759204170433710130
2.504745139451589e-06,0.0,1759204170453124454
2.7575064361816436e-06,0.0,1759204170472645366
-2.1609156409110656e-06,0.0,1759204170493440329
2.3999312431358302e-06,0.0,1759204170513213432
2.4838028664289454e-06,0.0,1759204170532801556
1.9022370374336309e-06,0.0,1759204170554311681
2.0709549802793933e-06,0.0,1759204170572842782
-1.3845706076282592e-07,0.0,1759204170594733486
1.057564841264752e-06,0.0,1759204170612277799
-8.923995200900439e-08,0.0,1759204170634797830
1.182751297507224e-06,0.0,1759204170652025336
2.4625647723952193e-06,0.0,1759204170673338248
-2.2839786262559e-06,0.0,1759204170693430414
2.0495075373803887e-06,0.0,1759204170713052878
2.1511101679385876e-06,0.0,1759204170732402310
1.6337480756623418e-06,0.0,1759204170754570061
1.8196148477794665e-06,0.0,1759204170772335492
-2.9818433880495584e-07,0.0,1759204170794453114
8.743404498042223e-07,0.0,1759204170812027424
2.0571958506308443e-06,0.0,1759204170833661405
3.602033981107777e-07,0.0,1759204170853186741
1.7792146480132898e-06,0.0,1759204170873070513
-2.7774466007625117e-06,0.0,1759204170893080417
1.2900759313924373e-06,0.0,1759204170913688481
-3.0190640005059894e-06,0.0,1759204170933406099
1.4000749915492957e-06,0.0,1759204170953267079
1.5753308010210964e-06,0.0,1759204170972442343
1.0004586198015279e-05,0.0,1759204170994653558
2.6256633003316756e-06,0.0,1759204171012176502
-6.706673245828695e-09,0.0,1759204171033771423
5.460325517800693e-06,0.0,1759204171053016492
-2.2608932248814197e-07,0.0,1759204171073034236
8.156549318136249e-06,0.0,1759204171093271940
3.604584960080412e-06,0.0,1759204171112590771
-1.4033618056750626e-06,0.0,1759204171133632977
4.881054957822294e-07,0.0,1759204171154061680
-1.3863693189352966e-06,0.0,1759204171172435961
-6.638496223657308e-06,0.0,1759204171193471294
-2.0513719822300132e-06,0.0,1759204171213087328
-6.607012724986071e-06,0.0,1759204171233570663
-1.1189835062775667e-06,0.0,1759204171253073348
-6.502509941395637e-07,0.0,1759204171272510540
-2.6994068246679936e-06,0.0,1759204171294523637
-1.2216325391577807e-06,0.0,1759204171312685173
3.181449038992122e-07,0.0,1759204171333826278
-1.309415160569049e-06,0.0,1759204171353785578
4.74309301613823e-07,0.0,1759204171373013627
-4.160946870364928e-06,0.0,1759204171393798913
7.313321633449067e-07,0.0,1759204171412906830
-3.6358316159074455e-06,0.0,1759204171433837059
1.3847865080225383e-06,0.0,1759204171453046428
1.5910130369178531e-06,0.0,1759204171472205793
-4.987900694565144e-07,0.0,1759204171494657633
7.395531893061032e-07,0.0,1759204171511977116
-3.737249374443511e-07,0.0,1759204171534507886
8.803673518098246e-07,0.0,1759204171552231719
2.2011514257805003e-06,0.0,1759204171573208311
-2.548082565587907e-06,0.0,1759204171593689732
1.994683136345655e-06,0.0,1759204171612974907
-2.2538208395489864e-06,0.0,1759204171633734096
2.245724197902827e-06,0.0,1759204171653350850
2.5515785428434446e-06,0.0,1759204171672313762
3.174690118886954e-07,0.0,1759204171694362984
1.9578930136294186e-06,0.0,1759204171712645348
7.135833438400291e-07,0.0,1759204171735367676
2.2088536096146333e-06,0.0,1759204171752220690
2.5765167737839247e-06,0.0,1759204171773238030
-2.5614248290550757e-08,0.0,1759204171793119488
1.8233342126315206e-06,0.0,1759204171813520107
-3.3284283211235994e-07,0.0,1759204171833820000
1.7096223106977605e-06,0.0,1759204171853530656
1.9973806701311416e-06,0.0,1759204171872151556
-2.129482325009407e-06,0.0,1759204171893532387
1.909004254288755e-06,0.0,1759204171913116074
-2.049848423911191e-06,0.0,1759204171934091501
2.3269948776936605e-06,0.0,1759204171952890433
2.3853464339387552e-06,0.0,1759204171972756571
3.68113047304813e-07,0.0,1759204171994232624
1.341420311057736e-06,0.0,1759204172012059201
1.0659577960714844e-05,0.0,1759204172034240174
5.757545114602539e-06,0.0,1759204172052121747
6.862276581013158e-07,0.0,1759204172072919216
1.6002405085521655e-05,0.0,1759204172093894982
-3.2917492372261137e-07,0.0,1759204172113315424
1.4529703043481383e-05,0.0,1759204172133714250
-2.5426149684311932e-06,0.0,1759204172152883136
-3.423861913707811e-06,0.0,1759204172172480567
-6.989224988626927e-06,0.0,1759204172194183924
-5.276757225636478e-06,0.0,1759204172212274581
-6.042342766323152e-06,0.0,1759204172234007016
-4.225875614369585e-06,0.0,1759204172252267291
-2.3505911294223784e-06,0.0,1759204172273047447
1.3852282140693852e-05,0.0,1759204172293353093
-8.471498006178997e-07,0.0,1759204172313491292
1.3455806901104772e-05,0.0,1759204172334379288
-3.233386374113262e-06,0.0,1759204172353368017
-4.750789529329749e-06,0.0,1759204172372473288
-7.540210042734215e-06,0.0,1759204172394924689
-5.033165276512987e-06,0.0,1759204172413077989
