loc_acc_x,loc_acc_y,stamp
7.927625342767319e-06,0.0,1759203611138407798
8.513154207070681e-06,0.0,1759203611138642696
-1.1800749636409251e-07,0.0,1759203611147600906
4.588799939883551e-06,0.0,1759203611165160924
1.4847991136839497e-07,0.0,1759203611187494473
4.869901233184286e-06,0.0,1759203611205453521
1.0043196442563678e-05,0.0,1759203611225940171
-7.5469948807849835e-06,0.0,1759203611247107088
9.443829525568154e-06,0.0,1759203611266446909
-7.863956746146757e-06,0.0,1759203611286618472
9.45380771839769e-06,0.0,1759203611306397962
9.779818979497292e-06,0.0,1759203611325444343
1.5757758290068598e-06,0.0,1759203611347468801
5.724575556944794e-06,0.0,1759203611365030982
1.0853649724543063e-06,0.0,1759203611386949628
5.354033464801278e-06,0.0,1759203611405407229
1.0134830479832811e-05,0.0,1759203611426188551
-7.484232814438348e-06,0.0,1759203611446351675
8.265784913850536e-06,0.0,1759203611466233634
-8.147739705883048e-06,0.0,1759203611486477839
8.386800284370566e-06,0.0,1759203611506391610
8.776135460869256e-06,0.0,1759203611525165778
1.038326202570407e-06,0.0,1759203611547231819
4.910503446860948e-06,0.0,1759203611565417504
8.545207209151135e-07,0.0,1759203611587243830
4.907786141327982e-06,0.0,1759203611605232839
9.237460173001905e-06,0.0,1759203611626288828
-6.934231496628475e-06,0.0,1759203611646411111
7.744641908041196e-06,0.0,1759203611665925032
-7.009352447510447e-06,0.0,1759203611686634217
8.341332776016555e-06,0.0,1759203611706137153
9.305115440493358e-06,0.0,1759203611725332619
1.4977827846356666e-06,0.0,1759203611746999009
7.118925216946696e-06,0.0,1759203611765145350
2.754343662805118e-06,0.0,1759203611787579991
7.585919982601882e-06,0.0,1759203611805376621
7.890676443536843e-06,0.0,1759203611825819045
1.056970108882968e-06,0.0,1759203611847874720
4.5507251502987835e-06,0.0,1759203611865660880
8.063240489518882e-07,0.0,1759203611887543703
7.740729308388079e-06,0.0,1759203611906129980
8.459554586161374e-06,0.0,1759203611925010505
-5.280572856720719e-06,0.0,1759203611946600194
7.434377496712499e-06,0.0,1759203611966837691
-6.768994873542367e-06,0.0,1759203611986743156
7.0047635536683095e-06,0.0,1759203612006999308
7.37393368714437e-06,0.0,1759203612025233908
7.568672510822115e-07,0.0,1759203612047155719
4.056201177791514e-06,0.0,1759203612065315262
5.072204035671063e-07,0.0,1759203612087347212
4.076117519794552e-06,0.0,1759203612105159805
7.683785574330923e-06,0.0,1759203612126934039
-6.3671322938953305e-06,0.0,1759203612147024284
6.678888163740721e-06,0.0,1759203612166040594
1.417810671312878e-05,0.0,1759203612186436991
7.545340732178604e-06,0.0,1759203612205834943
6.400435751425246e-06,0.0,1759203612225080010
8.899791903946827e-06,0.0,1759203612247647082
5.107831734703671e-06,0.0,1759203612265270873
7.1366859212910836e-06,0.0,1759203612286898859
4.6723017378162255e-06,0.0,1759203612305178184
2.043640341276298e-06,0.0,1759203612326337802
7.976175131702088e-06,0.0,1759203612347289099
1.1940217704737708e-06,0.0,1759203612366156738
-1.2696732415295542e-05,0.0,1759203612386258210
-8.477227278620698e-07,0.0,1759203612406410715
6.139199240026075e-07,0.0,1759203612424978283
-5.361671712851731e-06,0.0,1759203612447548419
3.3082343082788063e-07,0.0,1759203612465208365
-2.96341725699943e-06,0.0,1759203612487215221
1.789336710089766e-06,0.0,1759203612505046022
2.536552506256677e-06,0.0,1759203612525627386
-3.1091304367603437e-06,0.0,1759203612547201510
2.853989508241898e-07,0.0,1759203612565436604
9.570133931183082e-06,0.0,1759203612588041051
4.666325621439369e-06,0.0,1759203612605510399
2.1626743653541323e-06,0.0,1759203612626613912
-1.3921057428286955e-05,0.0,1759203612647009692
1.3473472134213572e-06,0.0,1759203612666128680
-1.0174443360849322e-05,0.0,1759203612687326476
3.9823338504381495e-06,0.0,1759203612705989475
4.518982127041268e-06,0.0,1759203612725583497
-1.0998306615513551e-06,0.0,1759203612747099801
1.8844968316260626e-06,0.0,1759203612765846917
9.473447173465355e-06,0.0,1759203612787125202
6.8881602463784115e-06,0.0,1759203612805332613
4.2919021211087005e-06,0.0,1759203612826661962
1.2078470573244449e-05,0.0,1759203612846156046
3.7263850812304607e-06,0.0,1759203612865997366
1.0778273733810427e-05,0.0,1759203612886316160
2.1186899485767482e-06,0.0,1759203612906087598
1.337202378273844e-06,0.0,1759203612925539029
4.5434506482830914e-06,0.0,1759203612947219601
9.928298334596434e-07,0.0,1759203612965439546
3.58991311287255e-06,0.0,1759203612987243259
1.310881942902531e-06,0.0,1759203613005306151
-1.1115446382293634e-06,0.0,1759203613026891051
6.037160122858454e-06,0.0,1759203613046466360
-8.415578364626473e-07,0.0,1759203613066139421
6.171498378232679e-06,0.0,1759203613086423873
-1.4222014206884008e-06,0.0,1759203613106192247
-2.128226432982419e-06,0.0,1759203613125702433
1.4854934876956205e-06,0.0,1759203613147258868
-1.4873276446180251e-06,0.0,1759203613165429098
5.081710947001752e-07,0.0,1759203613187506651
-2.104245109226576e-06,0.0,1759203613205010033
-2.420340197745034e-06,0.0,1759203613225541035
8.287481363818432e-07,0.0,1759203613247372613
-1.0270996330391847e-06,0.0,1759203613265273652
7.110466436331127e-07,0.0,1759203613287159875
-1.2214026059668702e-06,0.0,1759203613305102428
-3.2458126624656376e-06,0.0,1759203613326270699
3.531483557797654e-06,0.0,1759203613348251367
-3.46904840229178e-06,0.0,1759203613366314993
-1.7139899023654258e-05,0.0,1759203613386718876
-4.125966682510007e-06,0.0,1759203613406356007
-2.856090912470979e-06,0.0,1759203613425591757
-8.42554850693553e-06,0.0,1759203613447684889
-4.254935122771952e-06,0.0,1759203613465701654
-6.9383794345922625e-06,0.0,1759203613487618364
-2.624638194395225e-06,0.0,1759203613504977601
1.6256081409574674e-06,0.0,1759203613526544114
-1.1911569749106924e-05,0.0,1759203613546013100
9.117559527238318e-07,0.0,1759203613565949743
-1.1239077366539872e-05,0.0,1759203613586506284
2.4652458493036388e-06,0.0,1759203613605967846
3.1502249958867313e-06,0.0,1759203613625422092
-2.628319117782819e-06,0.0,1759203613647154315
7.366194873761668e-07,0.0,1759203613665441289
-2.236663593435251e-06,0.0,1759203613687508932
1.3593274926830165e-06,0.0,1759203613705069893
5.02386801861013e-06,0.0,1759203613726450253
-7.914361238374831e-06,0.0,1759203613746209338
3.8793717021760995e-06,0.0,1759203613766097753
-8.055156727864836e-06,0.0,1759203613786125672
4.363380637725666e-06,0.0,1759203613805826160
5.310648956284924e-06,0.0,1759203613825710981
-7.064931808823967e-07,0.0,1759203613847581412
4.08769001399903e-06,0.0,1759203613865309623
6.552717857491938e-07,0.0,1759203613886985524
4.632745153374125e-06,0.0,1759203613905054885
5.014018140381943e-06,0.0,1759203613925776799
-4.753597890579111e-07,0.0,1759203613946936626
4.801391797129254e-06,0.0,1759203613965968942
-9.201941167317741e-07,0.0,1759203613986351079
1.9817189844951266e-06,0.0,1759203614005474741
5.3153273078615145e-06,0.0,1759203614026241012
-6.20823273378986e-06,0.0,1759203614046498961
4.6327391790520735e-06,0.0,1759203614065860828
-5.799671582125566e-06,0.0,1759203614086861937
5.653139811181277e-06,0.0,1759203614106020746
5.882536129623044e-06,0.0,1759203614125300090
7.256197143490627e-07,0.0,1759203614147573878
3.392775578886449e-06,0.0,1759203614165146562
6.214463738206403e-07,0.0,1759203614187185776
3.3615502830181666e-06,0.0,1759203614205144743
6.2816321350089475e-06,0.0,1759203614226282544
-4.626342167340686e-06,0.0,1759203614246594872
5.282199036847054e-06,0.0,1759203614266112066
-4.922811878088594e-06,0.0,1759203614286360847
5.434221056830289e-06,0.0,1759203614306029923
5.6386584468360725e-06,0.0,1759203614325238790
8.521629433513501e-07,0.0,1759203614347592336
4.870030236105957e-06,0.0,1759203614365417421
1.1255622146923263e-05,0.0,1759203614387250298
7.964331454082095e-06,0.0,1759203614405224900
4.5096962106884606e-06,0.0,1759203614426273907
9.727575520881945e-06,0.0,1759203614446431613
4.123487417311068e-06,0.0,1759203614466427592
1.3512050010284265e-05,0.0,1759203614486523456
2.3890547191840182e-06,0.0,1759203614506080678
9.476684633439986e-07,0.0,1759203614525422964
5.3731729370125175e-06,0.0,1759203614547108152
1.030647039964297e-06,0.0,1759203614565297284
1.128165529946188e-05,0.0,1759203614588183757
2.721008055925349e-07,0.0,1759203614605458608
-1.7580116084139074e-06,0.0,1759203614626340569
1.1591821491049904e-05,0.0,1759203614647087961
3.159136361716905e-06,0.0,1759203614665119623
9.77689552845736e-06,0.0,1759203614687167860
1.158911651659172e-06,0.0,1759203614705574055
-8.252674130845466e-06,0.0,1759203614725875654
2.0185033990615116e-05,0.0,1759203614746832754
-8.387254802152247e-06,0.0,1759203614766201535
3.9331984198484016e-05,0.0,1759203614786569281
-9.872917382645851e-06,0.0,1759203614806118523
-1.2275938972303499e-05,0.0,1759203614825411334
9.392871540335157e-06,0.0,1759203614847502598
-3.4183772373644085e-06,0.0,1759203614865406090
8.090153907170082e-06,0.0,1759203614886914668
-5.032016829367632e-06,0.0,1759203614905053821
-1.898673579062116e-05,0.0,1759203614926099792
2.9043590729301294e-05,0.0,1759203614946158334
-1.4716992650438944e-05,0.0,1759203614966324758
2.9878514564494835e-05,0.0,1759203614986582340
-1.6620473275727036e-05,0.0,1759203615006288596
-1.835923185293568e-05,0.0,1759203615025016230
-7.919820270706834e-06,0.0,1759203615047204130
-1.3280608652974629e-05,0.0,1759203615065390826
-6.567266498954381e-06,0.0,1759203615087627381
-1.2375833522633841e-05,0.0,1759203615105717957
-1.8696896857600845e-05,0.0,1759203615126153014
6.568438875454684e-06,0.0,1759203615146634626
-1.58441229027628e-05,0.0,1759203615166141045
7.279930959371727e-06,0.0,1759203615186546122
-1.5757705165343454e-05,0.0,1759203615206125026
-1.6924469534068092e-05,0.0,1759203615225342240
-4.862687345961965e-06,0.0,1759203615247284073
-1.3308853513618642e-05,0.0,1759203615265204517
-6.311515263191655e-06,0.0,1759203615287096887
-1.3392766615972163e-05,0.0,1759203615305012694
-1.367798037811029e-05,0.0,1759203615325511446
3.887737872746263e-06,0.0,1759203615348026954
-1.048890148875016e-05,0.0,1759203615365334256
-5.019307388952746e-06,0.0,1759203615386999469
-1.5074248647299361e-05,0.0,1759203615406134658
-1.5847933743297122e-05,0.0,1759203615425240704
5.9446784517514486e-06,0.0,1759203615446928994
-1.4493051669138015e-05,0.0,1759203615466626480
6.638303508992984e-06,0.0,1759203615486850330
-1.4743325184793112e-05,0.0,1759203615506061085
-1.4780180003053794e-05,0.0,1759203615525504648
-4.438669734997785e-06,0.0,1759203615547120483
-8.95113079081434e-06,0.0,1759203615565509856
-1.3568171045523248e-05,0.0,1759203615587803184
-1.2756526836344801e-05,0.0,1759203615605394029
-1.2106253274633907e-05,0.0,1759203615626290590
-1.0852998663285587e-05,0.0,1759203615646443480
-9.912327612930124e-06,0.0,1759203615666012321
-8.842979846967833e-06,0.0,1759203615686300170
-8.047476692908294e-06,0.0,1759203615706438714
-7.249824983892995e-06,0.0,1759203615725060180
-6.4884458182821615e-06,0.0,1759203615747044573
-5.873849999495538e-06,0.0,1759203615765437752
-5.256285381610638e-06,0.0,1759203615787315954
-4.752360621228685e-06,0.0,1759203615805178910
-4.303424484536481e-06,0.0,1759203615826273811
1.5392563646252347e-05,0.0,1759203615846264255
-2.3704795225191885e-06,0.0,1759203615866144980
1.7062448656411543e-05,0.0,1759203615886146108
-3.405760094884984e-06,0.0,1759203615906095064
-5.411193105768002e-06,0.0,1759203615925283477
4.147597418350074e-06,0.0,1759203615947423919
-4.094503755516392e-06,0.0,1759203615965200624
1.3003539096241695e-06,0.0,1759203615987083844
-5.569726396054657e-06,0.0,1759203616005019282
-6.436935038716927e-06,0.0,1759203616025522323
2.356484421834487e-06,0.0,1759203616047165091
-2.5520809446874494e-06,0.0,1759203616065419137
8.70535400860321e-06,0.0,1759203616087702377
-4.737719394891238e-06,0.0,1759203616105394586
-1.073613323403722e-05,0.0,1759203616126696471
1.3976998723798904e-05,0.0,1759203616146502504
-8.459961467370971e-06,0.0,1759203616165982672
9.633436325141852e-06,0.0,1759203616186621130
-1.0144531878863148e-05,0.0,1759203616206039418
-1.0496028037658447e-05,0.0,1759203616225778791
-1.8297663525572907e-06,0.0,1759203616247647320
-6.1580962527130255e-06,0.0,1759203616265225328
-1.4529698752204636e-06,0.0,1759203616287238989
-5.936214757004731e-06,0.0,1759203616305483761
-1.0828311200067857e-05,0.0,1759203616326106709
7.1562674962485815e-06,0.0,1759203616346700724
-8.956811481667636e-06,0.0,1759203616366712736
2.8915829266048134e-05,0.0,1759203616386522135
-8.223755254364856e-06,0.0,1759203616405980733
-9.99423852497712e-06,0.0,1759203616425042048
6.142611027732902e-06,0.0,1759203616447736570
-3.502373616853715e-06,0.0,1759203616465661011
5.378820338918946e-06,0.0,1759203616487262180
-4.654326771438293e-06,0.0,1759203616505224550
-1.5249115102727135e-05,0.0,1759203616526258943
7.321333178572605e-06,0.0,1759203616546104011
-1.0539361474104188e-05,0.0,1759203616566087544
2.3019073762972832e-05,0.0,1759203616586705354
-1.3726514058557014e-05,0.0,1759203616605985188
-1.6455295638634017e-05,0.0,1759203616625530129
3.926178168419301e-07,0.0,1759203616647453721
-1.28068314202952e-05,0.0,1759203616665244970
-2.9036599836199087e-06,0.0,1759203616687320418
-1.4375505724863664e-05,0.0,1759203616705005897
-1.542468272818868e-05,0.0,1759203616725062774
-3.103279221697976e-07,0.0,1759203616747627883
-8.590152588822895e-06,0.0,1759203616765405671
-2.5011131508061553e-07,0.0,1759203616787568513
-1.6525569206459817e-05,0.0,1759203616806026081
-1.8278534359668788e-05,0.0,1759203616825082064
1.256666644292132e-05,0.0,1759203616847142436
-1.8703363809132763e-05,0.0,1759203616866147681
1.3202668233122384e-05,0.0,1759203616886389276
-1.8630256255999255e-05,0.0,1759203616906132130
-1.9095798196956196e-05,0.0,1759203616925277335
-4.0882742687876675e-06,0.0,1759203616947641688
-1.1507624302132174e-05,0.0,1759203616965453810
-3.3743083822841247e-06,0.0,1759203616987997197
-1.16225972609948e-05,0.0,1759203617005018891
-2.002518597442159e-05,0.0,1759203617025879804
1.1699879995335879e-05,0.0,1759203617046302683
-1.6196859756596658e-05,0.0,1759203617066476467
1.3859831743258288e-05,0.0,1759203617086529421
-1.604631570752293e-05,0.0,1759203617106315451
-1.666936680183686e-05,0.0,1759203617125061179
-2.632570152348234e-06,0.0,1759203617147183129
-9.581562663391775e-06,0.0,1759203617165262803
8.545211444229994e-06,0.0,1759203617187053635
-4.581901148125412e-06,0.0,1759203617205187719
-1.8527270300147232e-05,0.0,1759203617226390240
3.118526787582491e-05,0.0,1759203617246445960
-1.5762427052892268e-05,0.0,1759203617265921817
3.028833112324985e-05,0.0,1759203617286248019
-1.8340789304566626e-05,0.0,1759203617305847819
-2.2007321216683892e-05,0.0,1759203617325444481
1.7199181170916894e-06,0.0,1759203617347187739
-1.6535947788235068e-05,0.0,1759203617365267227
-1.1342732044064565e-05,0.0,1759203617387043384
-1.976707890225689e-05,0.0,1759203617405236469
-1.9799909216934555e-05,0.0,1759203617426051801
-7.107587145543593e-06,0.0,1759203617447359897
-1.2512525786795963e-05,0.0,1759203617465789808
-5.420047411158866e-06,0.0,1759203617487511499
-1.1558443179961438e-05,0.0,1759203617505197170
-1.7970439881982113e-05,0.0,1759203617526499912
7.930991106824598e-06,0.0,1759203617546730203
-1.5272435427646e-05,0.0,1759203617566111596
8.494493510789686e-06,0.0,1759203617586802318
-1.608682897624427e-05,0.0,1759203617605942548
-1.6207859247096118e-05,0.0,1759203617625459453
-4.636095433175898e-06,0.0,1759203617647655884
-1.0130144483881591e-05,0.0,1759203617665326375
-3.743439671884648e-06,0.0,1759203617687521341
-9.37461377454409e-06,0.0,1759203617705931206
-1.5700034726743374e-05,0.0,1759203617726665097
8.61103059460473e-06,0.0,1759203617746554615
-1.2775439466888352e-05,0.0,1759203617765989826
9.815904764480826e-06,0.0,1759203617786223522
-1.2556366843411249e-05,0.0,1759203617806139349
-1.2952395711463133e-05,0.0,1759203617825200228
-2.3536637257189383e-06,0.0,1759203617847588403
-1.1136228826322856e-05,0.0,1759203617865371635
-2.531969363710109e-06,0.0,1759203617887764456
-1.1778122817153221e-05,0.0,1759203617905162551
-1.42191025674246e-05,0.0,1759203617926249302
-1.5400609395587704e-06,0.0,1759203617946622434
-1.1081725274839734e-05,0.0,1759203617966071090
7.494552434616613e-06,0.0,1759203617986610364
-1.1403858102711885e-05,0.0,1759203618006038015
-1.2482104033522428e-05,0.0,1759203618025388637
-2.1576114072240367e-06,0.0,1759203618047387448
-9.748146423616606e-06,0.0,1759203618065153780
-3.6284250213731645e-06,0.0,1759203618087239742
-1.0191204701263486e-05,0.0,1759203618105039278
5.263702739751929e-05,0.0,1759203618126644838
-1.285974450657e-05,0.0,1759203618146314975
-1.616700092965406e-05,0.0,1759203618165467317
-2.0676581877988687e-05,0.0,1759203618187167282
-1.896633979172045e-05,0.0,1759203618206259333
-1.7145768774338987e-05,0.0,1759203618225606025
-1.6638392655019182e-05,0.0,1759203618246688385
-1.3930604893627834e-05,0.0,1759203618266277173
-1.3693881633745729e-05,0.0,1759203618286265389
-1.1203513830694608e-05,0.0,1759203618306515952
-9.993878143063254e-06,0.0,1759203618325381757
-9.499738233048312e-06,0.0,1759203618347310162
-8.256111286015734e-06,0.0,1759203618365141695
-7.484835077991065e-06,0.0,1759203618387174543
-6.531483711250469e-06,0.0,1759203618405307332
-5.635450541534803e-06,0.0,1759203618426159129
-5.798022595495376e-06,0.0,1759203618446229691
-4.5588080119340264e-06,0.0,1759203618465908485
-4.765089903965571e-06,0.0,1759203618486668205
-3.5969474703604073e-06,0.0,1759203618506282434
-3.1836745610492665e-06,0.0,1759203618525114628
-3.161760909651528e-06,0.0,1759203618547181570
-2.6736320964288817e-06,0.0,1759203618565418399
-2.5660947963489484e-06,0.0,1759203618587510584
-2.124706889459889e-06,0.0,1759203618605258446
-1.7009787953932384e-06,0.0,1759203618626472622
-2.635255619173774e-06,0.0,1759203618646711748
-1.369807229175684e-06,0.0,1759203618666062962
-2.2377573274837844e-06,0.0,1759203618686779790
-9.543567934529735e-07,0.0,1759203618706174953
-7.305585797403153e-07,0.0,1759203618725530829
-1.1321180950917047e-06,0.0,1759203618748135846
-5.785770310769697e-07,0.0,1759203618765191793
-7.857617882743115e-07,0.0,1759203618787394903
-3.4174924108513994e-07,0.0,1759203618805239245
-2.294127277372583e-07,0.0,1759203618825346787
-6.349890399271605e-07,0.0,1759203618847554983
-3.1861759968068876e-07,0.0,1759203618865679919
-8.858926299694837e-07,0.0,1759203618887840958
1.3811664962112983e-07,0.0,1759203618906331113
2.3547508894851637e-07,0.0,1759203618925195875
-9.59636028553308e-07,0.0,1759203618946674934
2.3600412254098392e-07,0.0,1759203618966711366
-7.367259239328336e-07,0.0,1759203618986887355
3.488779837713727e-07,0.0,1759203619006274448
3.916376349933829e-07,0.0,1759203619025021995
-4.667120108219798e-08,0.0,1759203619047275463
1.9539787408757202e-07,0.0,1759203619065356261
-4.406901623440689e-08,0.0,1759203619087272461
2.133022131980469e-07,0.0,1759203619105028863
4.846601884364396e-07,0.0,1759203619125956214
-4.5859338089865993e-07,0.0,1759203619146699969
4.3388213368397987e-07,0.0,1759203619166256791
-4.7782026306020734e-08,0.0,1759203619187054748
4.891376633901646e-07,0.0,1759203619206569431
4.803949016229065e-07,0.0,1759203619225459751
2.1893478534031993e-07,0.0,1759203619246971401
3.9359627337459964e-07,0.0,1759203619265280161
1.799493778556699e-07,0.0,1759203619286983579
3.6249227427316024e-07,0.0,1759203619305313926
4.0980229072665784e-07,0.0,1759203619325891677
1.1695818724124356e-07,0.0,1759203619346273961
3.1744308055853884e-07,0.0,1759203619366224372
-4.999663894774634e-07,0.0,1759203619386242135
2.677114150528585e-07,0.0,1759203619406245015
3.3267460283699105e-07,0.0,1759203619425192135
-8.941539738286296e-08,0.0,1759203619447228833
2.506013046649471e-07,0.0,1759203619465048451
9.63861281006027e-09,0.0,1759203619487497699
3.0490163617080196e-07,0.0,1759203619505222241
3.3744607150744535e-07,0.0,1759203619525262052
-5.0064049350771785e-08,0.0,1759203619547133637
1.539329405714673e-07,0.0,1759203619565796679
-8.437698454144314e-09,0.0,1759203619587820569
2.9417906542611385e-07,0.0,1759203619605624867
4.288486113643312e-07,0.0,1759203619626071867
-1.1493658861847366e-07,0.0,1759203619646669890
3.6575623817867914e-07,0.0,1759203619666167307
-5.002002525230015e-08,0.0,1759203619686963866
3.8236121319238024e-07,0.0,1759203619705909636
3.750136405430916e-07,0.0,1759203619725291164
1.7064845526433158e-07,0.0,1759203619747222296
2.513044449889293e-07,0.0,1759203619765286539
-7.223698169602103e-08,0.0,1759203619787264583
1.3830654332936617e-07,0.0,1759203619804946541
3.564636952297138e-07,0.0,1759203619826172797
-4.5219993901137833e-07,0.0,1759203619846383390
2.9733571133218927e-07,0.0,1759203619866186622
-4.595786517163833e-07,0.0,1759203619886354004
3.1463285467390167e-07,0.0,1759203619906415948
3.3995084422309785e-07,0.0,1759203619925444340
-1.739503728293143e-08,0.0,1759203619947307418
2.907780240285661e-07,0.0,1759203619965047981
7.043762266087966e-09,0.0,1759203619987637295
3.2533146563451554e-07,0.0,1759203620005186354
4.174613826302176e-07,0.0,1759203620026198022
-7.408562000106206e-09,0.0,1759203620046494646
3.190843479962808e-07,0.0,1759203620066300169
-4.899177178774978e-08,0.0,1759203620086289478
2.872042735611957e-07,0.0,1759203620106330926
3.3547037199280377e-07,0.0,1759203620124954805
6.308409295989996e-08,0.0,1759203620147524845
2.7808213542240684e-07,0.0,1759203620164959552
6.53299915177647e-08,0.0,1759203620187322014
2.813559315418894e-07,0.0,1759203620205448061
3.0187321257806107e-07,0.0,1759203620225295424
-1.6442736492810154e-08,0.0,1759203620247336048
1.4980561102885947e-07,0.0,1759203620265576713
-1.9829075784270684e-08,0.0,1759203620287738625
3.151837302812726e-07,0.0,1759203620306249435
3.534263552674724e-07,0.0,1759203620325323302
-2.9672467322982676e-07,0.0,1759203620346617778
3.1886446657167184e-07,0.0,1759203620366530612
-3.3436566923368105e-07,0.0,1759203620386252796
3.1218210915190277e-07,0.0,1759203620406126534
3.2785420338994667e-07,0.0,1759203620425386090
2.487621046062595e-08,0.0,1759203620447194707
1.7596783214506647e-07,0.0,1759203620465517831
1.4917261692875777e-08,0.0,1759203620487602657
1.8048181002381972e-07,0.0,1759203620505219112
3.5731144460163e-07,0.0,1759203620525879395
2.014874014730631e-05,0.0,1759203620546334505
8.926598099409716e-07,0.0,1759203620566012637
-1.3089229664414784e-06,0.0,1759203620587030028
-2.1242220281365936e-06,0.0,1759203620606078007
-1.9806762866921395e-06,0.0,1759203620625620566
-2.3476104611794633e-06,0.0,1759203620647232028
-1.7654607046508278e-06,0.0,1759203620665044555
-1.9153058708836002e-06,0.0,1759203620687020733
-1.3562811367680706e-06,0.0,1759203620705476025
-1.0740495826332976e-06,0.0,1759203620726988201
-1.4593385148416216e-06,0.0,1759203620746184320
-9.168573424262666e-07,0.0,1759203620765974822
-1.2387056877664396e-05,0.0,1759203620786329388
-2.39742728380203e-06,0.0,1759203620806615237
-1.0712839568557871e-07,0.0,1759203620825190354
-1.9809250295669925e-05,0.0,1759203620846219083
6.817389349976148e-07,0.0,1759203620866147675
-5.132064864590074e-06,0.0,1759203620887307223
2.04192638756183e-06,0.0,1759203620905056243
3.2362322303154366e-06,0.0,1759203620925407599
-5.570379139003888e-06,0.0,1759203620947435889
-8.763280633538906e-08,0.0,1759203620965424839
5.553079968165544e-06,0.0,1759203620987624745
5.403742892066565e-06,0.0,1759203621006079713
5.37456703783031e-06,0.0,1759203621026075700
5.217309260175107e-06,0.0,1759203621046708662
4.443545418503727e-06,0.0,1759203621066240978
4.326191561790411e-06,0.0,1759203621086632846
3.5756740752830365e-06,0.0,1759203621106785981
3.193023375995578e-06,0.0,1759203621125710175
3.0251963810554368e-06,0.0,1759203621147597067
2.6348510418610604e-06,0.0,1759203621165274737
2.5214401589734195e-06,0.0,1759203621187098924
2.149425554036375e-06,0.0,1759203621205585287
1.7881000649777063e-06,0.0,1759203621226252009
2.078945958027122e-06,0.0,1759203621246433371
1.4406017992924433e-06,0.0,1759203621266054259
1.7306026128120263e-06,0.0,1759203621286629831
1.098286295446303e-06,0.0,1759203621305832318
9.549814902904103e-07,0.0,1759203621325447015
1.051235113224946e-06,0.0,1759203621347900510
7.568748116484549e-07,0.0,1759203621365547029
8.438939592574987e-07,0.0,1759203621387148330
5.725511455060445e-07,0.0,1759203621405438600
4.387976331655645e-07,0.0,1759203621426315298
6.36627911292775e-07,0.0,1759203621446084424
3.762449008907655e-07,0.0,1759203621466171719
5.430442369419048e-07,0.0,1759203621486390565
2.7932069526063164e-07,0.0,1759203621505869439
2.07475253893497e-07,0.0,1759203621525979898
3.4351945368414885e-07,0.0,1759203621547250443
1.7658535857767636e-07,0.0,1759203621565284003
1.0697075720914305e-07,0.0,1759203621586700566
1.557085814813154e-07,0.0,1759203621606700582
1.0964838215464073e-07,0.0,1759203621626370132
2.8937365704395194e-07,0.0,1759203621647149691
1.597658437261036e-07,0.0,1759203621665683878
2.4243328259577606e-07,0.0,1759203621687501331
1.090962463267388e-07,0.0,1759203621705597739
-2.9247689863910908e-08,0.0,1759203621726885861
3.9582011662610553e-07,0.0,1759203621746341396
-1.5172104278372248e-08,0.0,1759203621766138547
2.549445994527939e-07,0.0,1759203621786389194
-6.651424993137762e-08,0.0,1759203621805822973
-8.16863007490737e-08,0.0,1759203621825394389
5.20643675313238e-08,0.0,1759203621847447327
-2.5683000661780667e-08,0.0,1759203621865432666
4.6113567560724604e-08,0.0,1759203621887359960
-3.699784156830089e-08,0.0,1759203621905073476
-1.227318468769921e-07,0.0,1759203621926341034
1.8262709084081654e-07,0.0,1759203621946826664
-1.1380241082211568e-07,0.0,1759203621965981117
2.7763067416570436e-07,0.0,1759203621986318923
-1.247317197715419e-07,0.0,1759203622005995638
-1.4038474336958688e-07,0.0,1759203622025256311
4.205489761004844e-08,0.0,1759203622047201947
-1.2028690001302613e-07,0.0,1759203622065112308
-1.9154205408853238e-08,0.0,1759203622087130851
-9.147728890978062e-08,0.0,1759203622105573170
2.3336811014813897e-07,0.0,1759203622127741370
-1.2150274794999164e-07,0.0,1759203622145280837
-2.3731782750601437e-07,0.0,1759203622166011193
1.5775442245784327e-07,0.0,1759203622186197803
-2.0889572201216892e-07,0.0,1759203622206191675
-2.3258757913899747e-07,0.0,1759203622225293669
6.018911645367112e-07,0.0,1759203622246872129
-2.468657984893405e-07,0.0,1759203622266095222
-4.3692544645743673e-08,0.0,1759203622287678628
-2.692127780205277e-07,0.0,1759203622305803003
-2.9292738121157305e-07,0.0,1759203622325585382
1.898404201971779e-08,0.0,1759203622347434313
-1.439345214149465e-07,0.0,1759203622365743935
-1.3693340518655915e-07,0.0,1759203622387591748
-2.2364906353774057e-07,0.0,1759203622405281741
-3.177600309432753e-07,0.0,1759203622426075675
3.7320660971759215e-08,0.0,1759203622447023909
-2.837214022739014e-07,0.0,1759203622466035060
5.483458259048982e-08,0.0,1759203622486543669
-2.742663369374676e-07,0.0,1759203622506113762
-2.711353382327442e-07,0.0,1759203622525382091
-1.0378409259806954e-07,0.0,1759203622547297661
-1.7427835757024126e-07,0.0,1759203622565359556
-8.041294582988852e-08,0.0,1759203622587170516
-1.5834926166013886e-07,0.0,1759203622605137954
-2.3921335044956444e-07,0.0,1759203622626861198
1.1617897490640438e-07,0.0,1759203622646194375
-1.8490337047089642e-07,0.0,1759203622665827038
1.2596883177717145e-07,0.0,1759203622686544368
-1.8990161736401772e-07,0.0,1759203622706274022
-1.9451241502515697e-07,0.0,1759203622725002154
-4.5136113552495664e-08,0.0,1759203622747574095
-1.6423689459517075e-07,0.0,1759203622765720230
-3.960120073738015e-08,0.0,1759203622787711183
-1.7006247905890875e-07,0.0,1759203622805131548
-2.0301774934392792e-07,0.0,1759203622826647384
-2.1604100023536642e-08,0.0,1759203622846772060
-1.5674481149973149e-07,0.0,1759203622866305271
1.1362705518193225e-07,0.0,1759203622886690178
-1.5889738883118771e-07,0.0,1759203622906267925
-1.7571577182579844e-07,0.0,1759203622925294116
1.874212221162937e-07,0.0,1759203622946817658
-1.7061396743036024e-07,0.0,1759203622966204290
1.2583568893835392e-07,0.0,1759203622986611476
-1.8494126466036848e-07,0.0,1759203623006192539
-1.8881828193177685e-07,0.0,1759203623025592089
-4.923340399815226e-08,0.0,1759203623047726575
-1.157573836142948e-07,0.0,1759203623065573051
-3.662633538713057e-08,0.0,1759203623087196427
-1.0701758596576197e-07,0.0,1759203623105543098
-1.8520463811109963e-07,0.0,1759203623126357952
1.0996788175897057e-07,0.0,1759203623146508937
-1.5892532747417066e-07,0.0,1759203623165865630
4.0653433192338864e-07,0.0,1759203623186452285
-1.63326470718053e-07,0.0,1759203623205901746
-1.867584643651128e-07,0.0,1759203623225093332
7.224434783522947e-08,0.0,1759203623247124894
-7.349194737093455e-08,0.0,1759203623265120896
6.208552461770572e-08,0.0,1759203623287214003
-9.136997050376636e-08,0.0,1759203623304970499
-2.5164508232923536e-07,0.0,1759203623326112574
3.147232783985253e-07,0.0,1759203623346195953
-1.9761535858227013e-07,0.0,1759203623366311071
3.3598606482563266e-07,0.0,1759203623386204823
-2.1110483091083277e-07,0.0,1759203623405878958
-2.2855326764128776e-07,0.0,1759203623425362273
2.050562879920445e-08,0.0,1759203623447105734
-1.8805740158367153e-07,0.0,1759203623465601087
1.0739214582383415e-08,0.0,1759203623487747083
-2.1325254977617312e-07,0.0,1759203623505229532
-2.792409639266519e-07,0.0,1759203623526101958
1.3792702651132412e-08,0.0,1759203623546674114
-2.1592927266182295e-07,0.0,1759203623566366034
4.299068373539761e-08,0.0,1759203623586162707
-1.903317805200213e-07,0.0,1759203623606410810
-2.2443219171434279e-07,0.0,1759203623625344548
2.660847981478774e-07,0.0,1759203623646364064
-2.0229428093822267e-07,0.0,1759203623666235992
-4.778485200777967e-08,0.0,1759203623687870303
-2.0343913953950652e-07,0.0,1759203623705543215
-2.17256358451444e-07,0.0,1759203623725419513
9.48793642501701e-09,0.0,1759203623747259595
-1.1000093173162272e-07,0.0,1759203623765095189
1.0615136142470859e-08,0.0,1759203623787116021
-1.0923626146673876e-07,0.0,1759203623805870332
-2.5059871708022597e-07,0.0,1759203623825880909
2.159971394607674e-07,0.0,1759203623846848076
-2.309032090127068e-07,0.0,1759203623866263688
2.0976874440670838e-07,0.0,1759203623887107347
-2.6962407240710204e-07,0.0,1759203623905899116
-2.758734301871014e-07,0.0,1759203623925107869
-5.876069460901355e-08,0.0,1759203623947276265
-1.627494396271901e-07,0.0,1759203623965481990
-4.7586635496921474e-08,0.0,1759203623988336223
-1.684784345327036e-07,0.0,1759203624004990846
-2.8664394559553054e-07,0.0,1759203624026209705
1.6727959755114625e-07,0.0,1759203624046652377
-2.4455071756611924e-07,0.0,1759203624066197773
1.665415615990443e-07,0.0,1759203624087370614
-2.8598281365807314e-07,0.0,1759203624106028060
-2.872175112100796e-07,0.0,1759203624126130143
-7.232355732272261e-08,0.0,1759203624147322090
-2.3509465628301094e-07,0.0,1759203624165162479
-6.752931059796842e-08,0.0,1759203624187472464
-2.3780495662595799e-07,0.0,1759203624205108938
-2.8099602971888436e-07,0.0,1759203624227266257
1.1997783497848772e-07,0.0,1759203624246901223
-2.3773592461222403e-07,0.0,1759203624266176179
-2.513301519985813e-08,0.0,1759203624286358381
-2.130167420396692e-07,0.0,1759203624306195990
8.712638969120026e-07,0.0,1759203624326574302
-2.1119657973122964e-07,0.0,1759203624345866299
-3.0861851200095304e-07,0.0,1759203624365512946
-1.3317482715410286e-07,0.0,1759203624387346940
-2.788182225643791e-07,0.0,1759203624405103262
-2.8391832523616557e-07,0.0,1759203624425514054
-9.735737850148068e-08,0.0,1759203624447442714
-1.8210277308383564e-07,0.0,1759203624465764595
-7.947904036752543e-08,0.0,1759203624488304841
-1.7685700544292954e-07,0.0,1759203624505338967
-2.775088939320824e-07,0.0,1759203624526108070
1.0258483472714355e-07,0.0,1759203624547179483
-2.497493464758164e-07,0.0,1759203624566609713
1.2461123949975412e-07,0.0,1759203624586606603
-2.434280866411535e-07,0.0,1759203624606125171
-2.4580654208876064e-07,0.0,1759203624625371020
-6.759574862049333e-08,0.0,1759203624647315922
-1.4990829377007407e-07,0.0,1759203624665298136
-5.311018824624481e-08,0.0,1759203624687625553
-1.444818640646349e-07,0.0,1759203624705061845
-2.3804254456450383e-07,0.0,1759203624726365558
1.3459269567218798e-07,0.0,1759203624746464670
-1.9614912825858318e-07,0.0,1759203624766106991
1.4745195928610528e-07,0.0,1759203624786461213
-1.9661234820887253e-07,0.0,1759203624806270478
-2.0204581924981451e-07,0.0,1759203624825511758
-3.5096810986657526e-08,0.0,1759203624847188235
-1.6706805597731912e-07,0.0,1759203624865307857
-3.020224302768991e-08,0.0,1759203624886865069
-1.6578236119176948e-07,0.0,1759203624905042857
-2.0559846678803825e-07,0.0,1759203624925889443
-1.2644462649827635e-08,0.0,1759203624946327404
-1.5744226731220452e-07,0.0,1759203624966193794
1.3459733496764559e-07,0.0,1759203624986517827
-1.606449003655147e-07,0.0,1759203625006281446
-1.8001539840611982e-07,0.0,1759203625025234644
2.194669326310098e-07,0.0,1759203625046352813
-1.583468655019848e-07,0.0,1759203625066290844
-5.803302877933234e-08,0.0,1759203625087382899
-1.5908931032570843e-07,0.0,1759203625105632358
-1.666573725628554e-07,0.0,1759203625125483731
-1.908340546711429e-08,0.0,1759203625147416459
-9.270298167920066e-08,0.0,1759203625165671962
-1.1108881681895909e-08,0.0,1759203625187361013
-8.981794299252145e-08,0.0,1759203625205421238
-1.7565642991126652e-07,0.0,1759203625226395941
1.3597801132740575e-07,0.0,1759203625246881744
-1.5392648411164856e-07,0.0,1759203625266257018
1.4362387106581835e-07,0.0,1759203625286330593
-1.5045333654374923e-07,0.0,1759203625306434151
-1.5757707770992314e-07,0.0,1759203625325218412
-1.651668116583965e-08,0.0,1759203625347018231
-8.690008601974146e-08,0.0,1759203625365028848
-1.2603313163448713e-08,0.0,1759203625387595044
-8.975518682855636e-08,0.0,1759203625404992994
-1.6901747755260506e-07,0.0,1759203625426215934
1.27761414238592e-07,0.0,1759203625446501934
-1.34920130821039e-07,0.0,1759203625466696294
1.4201805727742988e-07,0.0,1759203625487012075
-1.4910017987659492e-07,0.0,1759203625506034505
-1.5485465905866383e-07,0.0,1759203625525017463
-2.339624166498007e-08,0.0,1759203625547217627
-1.3279124802175696e-07,0.0,1759203625565007242
9.702789266407355e-06,0.0,1759203625588086307
6.090838317144436e-07,0.0,1759203625605285791
2.4159545609374484e-05,0.0,1759203625627617646
8.048397763496702e-07,0.0,1759203625645615092
-7.796070977394126e-06,0.0,1759203625666302259
9.682465130705302e-06,0.0,1759203625686774994
-8.727815899534581e-06,0.0,1759203625706212440
-9.986080684363158e-06,0.0,1759203625725448874
1.4219378725901974e-05,0.0,1759203625746554039
-9.071688809843233e-06,0.0,1759203625766319459
-1.1161533973885474e-05,0.0,1759203625786835577
-1.1026803199945735e-05,0.0,1759203625805814918
-9.99573398263356e-06,0.0,1759203625825094968
-9.770034064760859e-06,0.0,1759203625847737940
-8.464719864262623e-06,0.0,1759203625865393457
-7.957691509246003e-06,0.0,1759203625887154294
-6.806550478480112e-06,0.0,1759203625905186106
-5.713801313492005e-06,0.0,1759203625926415052
-6.480313249064267e-06,0.0,1759203625946355364
-4.655785679466057e-06,0.0,1759203625966572134
-5.4457131471313136e-06,0.0,1759203625986555255
-3.631176849698411e-06,0.0,1759203626006120210
-3.173783192420793e-06,0.0,1759203626025598932
-3.4189482564569875e-06,0.0,1759203626047064902
-2.7658825247681502e-06,0.0,1759203626065527722
-2.7873251181368054e-06,0.0,1759203626087190102
-2.1719418346373095e-06,0.0,1759203626105013222
-1.5750608827928977e-06,0.0,1759203626126672136
-2.702348600864187e-06,0.0,1759203626146055470
-1.3160787035613295e-06,0.0,1759203626165906503
-2.328884475803274e-06,0.0,1759203626186417087
-9.361712323709776e-07,0.0,1759203626206368241
-7.509865631081063e-07,0.0,1759203626225063259
-1.1872500881679461e-06,0.0,1759203626247116411
-5.88103569573711e-07,0.0,1759203626265277295
-9.37270910047761e-07,0.0,1759203626287657179
-3.427546044127241e-07,0.0,1759203626305463914
-1.0593519971267447e-07,0.0,1759203626325919838
-7.02729850280184e-07,0.0,1759203626346437044
-1.1442482805308438e-07,0.0,1759203626366163967
-6.251416289948655e-07,0.0,1759203626386665566
-1.8306068988715394e-08,0.0,1759203626406158305
1.0276121616141271e-07,0.0,1759203626425380205
-3.04906072997159e-07,0.0,1759203626446960245
6.038404512323082e-08,0.0,1759203626465366339
-2.4508346863298587e-07,0.0,1759203626487465204
1.3746518836460757e-07,0.0,1759203626505548870
2.009749064717433e-07,0.0,1759203626525825794
-2.877427808628304e-07,0.0,1759203626547069704
1.3784864932318283e-09,0.0,1759203626565569250
-2.437490096158741e-07,0.0,1759203626587871431
6.354774124714523e-08,0.0,1759203626605729637
3.923002157090826e-07,0.0,1759203626626390591
-6.832691905650279e-07,0.0,1759203626646593906
3.4504033157059565e-07,0.0,1759203626666030485
-3.157982888238931e-07,0.0,1759203626686443475
4.133839064853374e-07,0.0,1759203626706215953
4.260615531450849e-07,0.0,1759203626725009395
9.973838630821887e-08,0.0,1759203626747328773
2.573717027195762e-07,0.0,1759203626765419679
-9.442534729180461e-08,0.0,1759203626787579509
1.750894250492054e-07,0.0,1759203626805421969
4.63830020654154e-07,0.0,1759203626826003888
-5.587556061000868e-07,0.0,1759203626846333103
3.5585460897835983e-07,0.0,1759203626866830684
-6.375027866671867e-07,0.0,1759203626886341086
3.557129484548404e-07,0.0,1759203626906184955
3.926092105489201e-07,0.0,1759203626925007155
-4.980322447093415e-08,0.0,1759203626947225725
3.355624779143848e-07,0.0,1759203626965417170
-3.04545962955622e-08,0.0,1759203626987380127
3.6832993777445297e-07,0.0,1759203627005340786
4.869920751967773e-07,0.0,1759203627026639701
-6.24631657764473e-08,0.0,1759203627046315808
3.5666515192360755e-07,0.0,1759203627066053478
-8.980125902673515e-08,0.0,1759203627086819308
3.478928229615211e-07,0.0,1759203627106468467
4.099893367106654e-07,0.0,1759203627125257003
6.154296570555633e-08,0.0,1759203627147520990
3.2965175807876587e-07,0.0,1759203627165314621
-4.884947122507208e-07,0.0,1759203627186690020
4.1401687648934776e-07,0.0,1759203627206164224
4.366345372614927e-07,0.0,1759203627225605157
2.4638507518040875e-08,0.0,1759203627247276593
2.334117614161849e-07,0.0,1759203627265417621
1.4162498148663915e-08,0.0,1759203627287562393
2.381734986003723e-07,0.0,1759203627305434118
4.799163456249331e-07,0.0,1759203627326196596
-3.7156226820994394e-07,0.0,1759203627346856383
4.072868156328437e-07,0.0,1759203627366839519
-4.310959633390871e-07,0.0,1759203627386449129
4.0819979484612917e-07,0.0,1759203627405955210
4.2686601265548846e-07,0.0,1759203627425206839
2.0858047555174808e-07,0.0,1759203627447181116
3.0735792345170865e-07,0.0,1759203627465352900
-1.0324922083853736e-05,0.0,1759203627487254987
-4.264259348057916e-06,0.0,1759203627505102472
2.0246353893322847e-06,0.0,1759203627526033488
-1.8448348818991778e-05,0.0,1759203627546365103
1.4955622799786252e-06,0.0,1759203627566406115
2.551290333335226e-06,0.0,1759203627586793089
4.321766157868136e-06,0.0,1759203627605907457
4.035365251349712e-06,0.0,1759203627625544763
3.750839387695997e-06,0.0,1759203627647773233
3.4454197548063927e-06,0.0,1759203627665744507
3.071002650758694e-06,0.0,1759203627687443189
2.8134344478581195e-06,0.0,1759203627705059608
2.5512244585239223e-06,0.0,1759203627726330068
2.2405120302463657e-06,0.0,1759203627746750573
2.064814890337911e-06,0.0,1759203627766357980
1.8094520562198613e-06,0.0,1759203627786404158
1.6784591052357895e-06,0.0,1759203627805923946
1.5214597481082498e-06,0.0,1759203627825296325
1.2735398069823144e-06,0.0,1759203627846674589
1.239861239103835e-06,0.0,1759203627866141431
1.0233270547268092e-06,0.0,1759203627886828877
1.0199933423936005e-06,0.0,1759203627906052578
9.252327050032245e-07,0.0,1759203627925485639
7.918177631010063e-07,0.0,1759203627947751314
7.368104164690588e-07,0.0,1759203627965703585
6.404302831512088e-07,0.0,1759203627987369535
6.011577484543259e-07,0.0,1759203628005695513
5.716927213867238e-07,0.0,1759203628026017751
4.2303384367046836e-07,0.0,1759203628046513697
4.64432737581844e-07,0.0,1759203628066319776
3.330965823098442e-07,0.0,1759203628086930177
3.913157966620153e-07,0.0,1759203628105892374
3.5844558493089345e-07,0.0,1759203628126411952
2.836660951839741e-07,0.0,1759203628147666310
2.776165853281013e-07,0.0,1759203628165404285
2.29184315974133e-07,0.0,1759203628187009100
2.287357641144715e-07,0.0,1759203628205494094
2.3347235809807584e-07,0.0,1759203628225954324
1.2618174169697968e-07,0.0,1759203628246193191
1.8958530536287308e-07,0.0,1759203628266064245
9.339654665818209e-08,0.0,1759203628286645376
1.6596127679353033e-07,0.0,1759203628305881618
1.5547041931230868e-07,0.0,1759203628325105151
1.0666021705185782e-07,0.0,1759203628347691201
1.2905117883855065e-07,0.0,1759203628365426057
8.792946143485e-08,0.0,1759203628387046985
9.856356524479384e-08,0.0,1759203628405435136
1.136623716997268e-07,0.0,1759203628426141285
6.096048557090822e-08,0.0,1759203628446222232
8.934176850367518e-08,0.0,1759203628466221400
4.11706273630627e-08,0.0,1759203628486361371
7.567242293313886e-08,0.0,1759203628506170210
7.67425192079887e-08,0.0,1759203628525231049
5.620548881457421e-12,0.0,1759203628546449995
6.672508496089604e-08,0.0,1759203628566121329
4.0656488145834047e-08,0.0,1759203628588240070
6.07003782704302e-08,0.0,1759203628605608829
5.973628190675263e-08,0.0,1759203628625342863
2.4766564432379875e-08,0.0,1759203628647672931
3.926547432043917e-08,0.0,1759203628665728762
1.931394238645348e-08,0.0,1759203628687485516
3.519257100529063e-08,0.0,1759203628705566227
5.3231557620803865e-08,0.0,1759203628726116299
-1.553966050291393e-08,0.0,1759203628746948444
4.721302208417352e-08,0.0,1759203628766108942
-1.6964283891982266e-08,0.0,1759203628786866462
4.8127144187675215e-08,0.0,1759203628806130608
4.806038206649111e-08,0.0,1759203628825198115
1.6373436006140923e-08,0.0,1759203628846922234
2.985211500215722e-08,0.0,1759203628865276844
1.2587808903533296e-08,0.0,1759203628887015351
2.7473608120599058e-08,0.0,1759203628905032833
4.352856472511665e-08,0.0,1759203628926124370
-1.970879013892566e-08,0.0,1759203628946218014
3.481047600855364e-08,0.0,1759203628966304647
-2.328566577383873e-08,0.0,1759203628986609169
3.555057582356401e-08,0.0,1759203629006076641
3.6270877058672184e-08,0.0,1759203629025095503
9.452614907903856e-09,0.0,1759203629047728010
3.1577842326005865e-08,0.0,1759203629065167515
9.37401434868946e-09,0.0,1759203629087300427
3.1279367914972566e-08,0.0,1759203629105517491
3.7050623933010736e-08,0.0,1759203629126993214
4.336902516083364e-09,0.0,1759203629146528331
2.7517180571577276e-08,0.0,1759203629166231538
3.0018800712353466e-08,0.0,1759203629185448968
2.230896020125545e-08,0.0,1759203629207729425
2.6070412208996575e-08,0.0,1759203629225037998
-2.3804401724033303e-08,0.0,1759203629246310908
2.3745146635169836e-08,0.0,1759203629266108911
7.814620042910589e-09,0.0,1759203629287557235
2.332461715819775e-08,0.0,1759203629305031643
2.4392339262338214e-08,0.0,1759203629325097074
1.0099282506389529e-05,0.0,1759203629348031222
4.098121560393434e-06,0.0,1759203629365468206
-1.9950669396386055e-06,0.0,1759203629387205164
-2.182143537131139e-06,0.0,1759203629405711275
-2.4300719433762167e-06,0.0,1759203629426814441
-2.616969513353361e-06,0.0,1759203629446433021
-2.0792763036629196e-06,0.0,1759203629466192534
-2.2164836109076554e-06,0.0,1759203629486991227
-1.6385149261568258e-06,0.0,1759203629506347420
-1.4477440544340083e-06,0.0,1759203629525396952
-1.4940657744369552e-06,0.0,1759203629547312486
-1.2380659956815823e-06,0.0,1759203629565284340
-1.1752374809895458e-06,0.0,1759203629588143591
-9.585056302836e-07,0.0,1759203629605535159
-7.493229048111208e-07,0.0,1759203629626160974
-1.0171227613198033e-06,0.0,1759203629646379897
-5.993804820616058e-07,0.0,1759203629665918025
-8.624687223140462e-07,0.0,1759203629686172892
-4.4954722755451605e-07,0.0,1759203629705935587
-3.7969622784996386e-07,0.0,1759203629725204131
-4.830925940230462e-07,0.0,1759203629747268736
-3.011569239556123e-07,0.0,1759203629765360799
-3.858196491512612e-07,0.0,1759203629787547995
-2.05941702313685e-07,0.0,1759203629805027558
-1.3143426096277095e-07,0.0,1759203629826518204
-1.1732367943946968e-05,0.0,1759203629846625797
-1.8257738806934469e-06,0.0,1759203629866399977
-1.1070109782476245e-05,0.0,1759203629886507598
-8.079264147343096e-07,0.0,1759203629906801770
1.407935003145728e-06,0.0,1759203629925879106
-1.6848750578104422e-05,0.0,1759203629947366288
