loc_acc_x,loc_acc_y,stamp
3.6217490214109137e-06,0.0,1759219277777465541
4.053266109430678e-06,0.0,1759219277777540120
7.12447842635477e-07,0.0,1759219277795923957
3.186528037397077e-06,0.0,1759219277813307418
1.3086982612894297e-06,0.0,1759219277835979710
3.3937863746678867e-06,0.0,1759219277853677988
3.9456557171993115e-06,0.0,1759219277874208792
2.72666221531094e-07,0.0,1759219277894375287
2.952679924286493e-06,0.0,1759219277914188490
-2.5942155714917754e-06,0.0,1759219277934343934
2.917725991334564e-06,0.0,1759219277954093204
3.2862327338653196e-06,0.0,1759219277973324188
3.252334599205247e-07,0.0,1759219277995595769
2.5848483785638852e-06,0.0,1759219278013531141
8.416509662727071e-07,0.0,1759219278035981281
2.8376219720955252e-06,0.0,1759219278053417975
2.985128443102606e-06,0.0,1759219278073621209
-1.646781449790953e-06,0.0,1759219278096005959
3.5540600461445175e-06,0.0,1759219278114452996
5.370764865405501e-07,0.0,1759219278134794941
3.271751409436644e-06,0.0,1759219278153968030
3.5439832530008466e-06,0.0,1759219278173202104
-2.2111073693585057e-06,0.0,1759219278194734643
3.2615917908742798e-06,0.0,1759219278214493946
-2.3960683745962397e-06,0.0,1759219278234261044
3.08559426446316e-06,0.0,1759219278254294968
3.1837216536520424e-06,0.0,1759219278273458691
5.22491324924262e-07,0.0,1759219278295097894
1.7816522755257464e-06,0.0,1759219278313482274
3.5294689568616276e-07,0.0,1759219278335320492
1.7146547064956728e-06,0.0,1759219278353410966
3.2106094364677567e-06,0.0,1759219278374207222
-2.326523209282362e-06,0.0,1759219278394273027
2.6489696519369414e-06,0.0,1759219278414040304
-2.338626656412093e-06,0.0,1759219278434930450
2.8265113038045314e-06,0.0,1759219278454754740
2.9292272196524415e-06,0.0,1759219278473520755
4.879264273928889e-07,0.0,1759219278495592378
1.7194443987917186e-06,0.0,1759219278513214538
4.053114145587142e-07,0.0,1759219278535611634
1.6724386280834482e-06,0.0,1759219278553708301
3.048602642091986e-06,0.0,1759219278574658228
-2.176902775057981e-06,0.0,1759219278594612453
2.538407365484721e-06,0.0,1759219278614019998
-2.1270547407818327e-06,0.0,1759219278634893980
2.791072852520428e-06,0.0,1759219278654310192
3.0911186430319297e-06,0.0,1759219278673312354
5.904038149037409e-07,0.0,1759219278695151983
1.6386245565787755e-06,0.0,1759219278713120383
8.668380166826162e-07,0.0,1759219278736171767
1.8414945537216641e-06,0.0,1759219278753527673
2.8358830862142876e-06,0.0,1759219278774948402
-2.1359951379103724e-06,0.0,1759219278794476612
2.10526675291764e-06,0.0,1759219278814367333
-2.334091992811617e-06,0.0,1759219278834704843
2.2642859802214797e-06,0.0,1759219278854245117
2.569247867396548e-06,0.0,1759219278873469479
2.602863053186894e-07,0.0,1759219278895152088
1.972919956931244e-06,0.0,1759219278913102347
6.654838302258268e-07,0.0,1759219278935184000
2.101686145108123e-06,0.0,1759219278953230208
2.499691775034139e-06,0.0,1759219278974009715
7.80532296863023e-09,0.0,1759219278994452108
1.906847343033493e-06,0.0,1759219279014012232
-2.2429764026423535e-07,0.0,1759219279034543291
1.776255680287007e-06,0.0,1759219279054097812
2.0314060462137414e-06,0.0,1759219279073507608
-2.0989205240546864e-06,0.0,1759219279094626368
1.8613494798045541e-06,0.0,1759219279114320022
5.146810642018719e-07,0.0,1759219279135353348
1.7908333618992467e-06,0.0,1759219279153276713
1.891895468690326e-06,0.0,1759219279173597068
-4.0329174737854436e-08,0.0,1759219279195050276
9.271768304756474e-07,0.0,1759219279213539844
-8.125946682349983e-08,0.0,1759219279235566000
9.691010191596993e-07,0.0,1759219279253512684
2.0940479674296556e-06,0.0,1759219279274505226
-1.9057287883563741e-06,0.0,1759219279294854372
1.8229968761592291e-06,0.0,1759219279314332744
-2.079360372620541e-05,0.0,1759219279334614507
1.2487463866935827e-06,0.0,1759219279354154205
2.620501049492912e-06,0.0,1759219279373526431
2.389042888819037e-06,0.0,1759219279395866285
3.1673317196551534e-06,0.0,1759219279413252324
2.21080774827515e-06,0.0,1759219279435153014
2.8610839928550713e-06,0.0,1759219279453912773
3.658709614715752e-06,0.0,1759219279474453489
1.2511960497316403e-08,0.0,1759219279494698443
3.0109620924812873e-06,0.0,1759219279514473521
-4.241782897032148e-07,0.0,1759219279534396096
2.733101728336191e-06,0.0,1759219279554265699
2.7024566640187426e-06,0.0,1759219279573183797
1.081933988864914e-06,0.0,1759219279595427666
1.7694084346294152e-06,0.0,1759219279613365017
8.565641787690458e-07,0.0,1759219279635414631
1.6028806360455077e-06,0.0,1759219279653529799
2.441020871689777e-06,0.0,1759219279674044503
-8.855742905922511e-07,0.0,1759219279694205793
1.9736875341194657e-06,0.0,1759219279714162056
-1.0071035905283692e-06,0.0,1759219279735206388
2.12206557360395e-06,0.0,1759219279754427621
2.268076320307801e-06,0.0,1759219279773817993
6.171644317442877e-07,0.0,1759219279795212387
1.24075347730761e-06,0.0,1759219279813630454
7.096455085246534e-07,0.0,1759219279835297864
1.2837203693347495e-06,0.0,1759219279853440205
1.9169569343803693e-06,0.0,1759219279874379064
8.773556594640722e-06,0.0,1759219279894870357
1.8001046503908562e-06,0.0,1759219279914222604
8.063493834444078e-06,0.0,1759219279934785711
4.7389511137750943e-07,0.0,1759219279954003073
-3.907167108663051e-07,0.0,1759219279973168240
-2.230017812103234e-06,0.0,1759219279995605656
-8.85290941160159e-07,0.0,1759219280013234150
-1.6197140804809895e-06,0.0,1759219280035478300
-3.9215711537647523e-07,0.0,1759219280053221338
6.173802255660509e-08,0.0,1759219280074578376
-1.5609534956593962e-06,0.0,1759219280094560680
-5.61771770348644e-08,0.0,1759219280114044085
-2.5186428158388154e-06,0.0,1759219280134940932
3.8460591894727397e-07,0.0,1759219280154096550
6.591411660021166e-07,0.0,1759219280173762435
-7.334380759733407e-07,0.0,1759219280195454885
4.441409520398019e-07,0.0,1759219280213630770
3.6695936262992296e-06,0.0,1759219280235748709
1.2799079689967023e-06,0.0,1759219280253895522
7.04557799999264e-07,0.0,1759219280273550695
3.7354471644666083e-06,0.0,1759219280295095225
1.68821074074667e-06,0.0,1759219280313538701
3.1481632159570594e-06,0.0,1759219280335285460
-4.6568780788583846e-07,0.0,1759219280354426845
-1.1354868385900998e-06,0.0,1759219280373586658
-4.275667171663636e-06,0.0,1759219280394794756
-1.235123684496799e-06,0.0,1759219280414158367
-4.043984822442773e-06,0.0,1759219280434985475
-5.923304507434179e-07,0.0,1759219280454453125
-3.009057872589872e-07,0.0,1759219280473408977
-1.6097241374792383e-06,0.0,1759219280495099260
-6.900113668674878e-07,0.0,1759219280513286422
-1.3326403445867245e-06,0.0,1759219280535353956
-3.805906765761015e-07,0.0,1759219280553110269
5.912989651750001e-07,0.0,1759219280574386171
-2.4247259180591285e-06,0.0,1759219280594625364
5.850865940088134e-07,0.0,1759219280614122834
-2.1965270914183303e-06,0.0,1759219280634800223
9.339358336455801e-07,0.0,1759219280654054287
1.057208971338894e-06,0.0,1759219280673281894
-2.8645215782049733e-07,0.0,1759219280695208439
4.617026338543689e-07,0.0,1759219280713120531
-2.5051862060866334e-07,0.0,1759219280735224067
5.307422660493479e-07,0.0,1759219280753161325
1.356976147469318e-06,0.0,1759219280774341152
8.41987593870365e-06,0.0,1759219280794876800
1.3598026223773859e-06,0.0,1759219280814313288
7.88661942566595e-06,0.0,1759219280834640453
2.2914179982878507e-07,0.0,1759219280853962887
-6.258942276574538e-07,0.0,1759219280873207297
2.5879189375034855e-06,0.0,1759219280895311550
-4.100341448406121e-07,0.0,1759219280913157588
1.3506270849148998e-06,0.0,1759219280935317072
-1.1594565716327188e-06,0.0,1759219280953132463
-1.9936887731313705e-06,0.0,1759219280973971128
-4.895209198088309e-06,0.0,1759219280994326852
-2.0534405903863412e-06,0.0,1759219281014244509
-4.606037502010346e-06,0.0,1759219281034659040
-1.3365995001092066e-06,0.0,1759219281054154887
-8.57053118449521e-07,0.0,1759219281073144925
-2.193458039796781e-06,0.0,1759219281095693945
-7.216703700818413e-07,0.0,1759219281113356251
-1.4283176603678768e-06,0.0,1759219281135888527
-2.1088728543937537e-07,0.0,1759219281153668056
2.4684361897261506e-07,0.0,1759219281174266847
4.191193223104838e-06,0.0,1759219281194575125
9.668343931874712e-07,0.0,1759219281214986880
4.22145165799612e-06,0.0,1759219281234188690
7.011436460407949e-07,0.0,1759219281254496408
-8.475626668418682e-08,0.0,1759219281273335639
6.236196204183173e-06,0.0,1759219281294620769
-3.440720847945997e-07,0.0,1759219281314727086
5.925319167625072e-06,0.0,1759219281335039532
-1.1240035527092807e-06,0.0,1759219281354329189
-1.4863910950858007e-06,0.0,1759219281373842538
-3.740164340988895e-06,0.0,1759219281395541537
-2.5757987740142822e-06,0.0,1759219281413291297
-1.2862235957791603e-05,0.0,1759219281435129625
-6.482395997077925e-06,0.0,1759219281453975988
5.810743248462722e-07,0.0,1759219281474403405
-2.0379353957100147e-05,0.0,1759219281495209773
1.4018899896027386e-06,0.0,1759219281514711282
-1.870729433145382e-05,0.0,1759219281535125530
4.141594043887648e-06,0.0,1759219281554389578
5.2885907204579914e-06,0.0,1759219281573546252
1.0634341161840247e-05,0.0,1759219281595131095
7.961226962351974e-06,0.0,1759219281613652739
9.171773409335431e-06,0.0,1759219281635751707
6.255167300935597e-06,0.0,1759219281653424186
3.338516748553048e-06,0.0,1759219281674463059
1.0463004635866831e-05,0.0,1759219281694399672
2.7629121903450107e-06,0.0,1759219281714123676
9.216564317260968e-06,0.0,1759219281734803364
1.162485906160549e-06,0.0,1759219281754161869
5.126971862187172e-07,0.0,1759219281773303351
3.508076745372733e-06,0.0,1759219281795228496
1.427093520528595e-06,0.0,1759219281813669998
2.933138016133125e-06,0.0,1759219281835620368
7.319213779395328e-07,0.0,1759219281853142422
-1.5083782404123806e-06,0.0,1759219281874266448
5.604169968923043e-06,0.0,1759219281894245082
-1.1810518560201571e-06,0.0,1759219281914149539
5.398223658087892e-06,0.0,1759219281934255851
-1.5462570310821262e-06,0.0,1759219281954457903
-2.2227220747305436e-06,0.0,1759219281973185569
9.922688530948044e-07,0.0,1759219281995777928
-1.832953802562354e-06,0.0,1759219282013157366
-1.691053279306687e-08,0.0,1759219282035870768
-2.397675442992954e-06,0.0,1759219282053094973
-3.051823331858493e-06,0.0,1759219282074714233
8.148900551766585e-07,0.0,1759219282094192492
-2.0017909735612116e-06,0.0,1759219282114878886
3.8626019797413475e-06,0.0,1759219282134403483
-2.0334307310986815e-06,0.0,1759219282154168519
-2.513661957364352e-06,0.0,1759219282173607254
6.308510584611729e-07,0.0,1759219282194999504
-1.7516875782264976e-06,0.0,1759219282213584493
3.6874631944285885e-09,0.0,1759219282235846302
-2.1420625325722917e-06,0.0,1759219282253670317
-2.3902108370418136e-06,0.0,1759219282273537012
-4.752358382625051e-06,0.0,1759219282295457406
-2.599927192659693e-06,0.0,1759219282314135186
-4.135280049645551e-06,0.0,1759219282334498448
-1.9329301239996677e-06,0.0,1759219282354197416
-1.3369715271273006e-06,0.0,1759219282373184354
4.695311634308956e-06,0.0,1759219282395071585
-1.2295975979643603e-06,0.0,1759219282414288370
4.596309114557297e-06,0.0,1759219282434982681
-1.79030668032583e-06,0.0,1759219282454483524
-2.058773781855871e-06,0.0,1759219282473579719
7.599368741685808e-07,0.0,1759219282495279869
-7.57425751952455e-07,0.0,1759219282513922398
7.201464836279265e-07,0.0,1759219282535678277
-9.32273806613846e-07,0.0,1759219282553524089
-2.6853941120685766e-06,0.0,1759219282574473320
3.2825595490518607e-06,0.0,1759219282595034081
-2.401965475060053e-06,0.0,1759219282614533453
3.163176817492964e-06,0.0,1759219282635154032
-2.9475069794532903e-06,0.0,1759219282654044291
-3.0734273732049957e-06,0.0,1759219282673195196
-4.1332525071533863e-07,0.0,1759219282695826830
-1.8244883404228671e-06,0.0,1759219282713152034
8.880481132606391e-06,0.0,1759219282735873306
2.0879344366136296e-06,0.0,1759219282753869994
-5.178230358070968e-06,0.0,1759219282774483224
1.784729981301294e-07,0.0,1759219282794192830
-4.9454226553564135e-06,0.0,1759219282814525647
4.677379463725776e-07,0.0,1759219282834313095
-4.540819138001809e-06,0.0,1759219282854054158
-4.457355390684903e-06,0.0,1759219282873582596
-1.8303698317296454e-06,0.0,1759219282895103018
-2.8502469914824604e-06,0.0,1759219282913669317
-1.4167591132216837e-06,0.0,1759219282935774075
-2.6009158183354584e-06,0.0,1759219282953508404
-3.883684770771723e-06,0.0,1759219282974294031
1.3616068962785017e-06,0.0,1759219282994461104
-3.1510321482294863e-06,0.0,1759219283014197012
1.679317132259774e-06,0.0,1759219283034586907
-3.1115696185169456e-06,0.0,1759219283054150552
-3.3653119505220325e-06,0.0,1759219283073488208
-8.769897462116127e-07,0.0,1759219283095622834
-2.6510953123986364e-06,0.0,1759219283113439507
-1.1953047835779508e-06,0.0,1759219283135272309
-2.6519044915198913e-06,0.0,1759219283153611331
-2.918898077480497e-06,0.0,1759219283179039727
4.828219790218912e-07,0.0,1759219283194716212
-1.5885355077393916e-06,0.0,1759219283214368826
1.1040193584151431e-05,0.0,1759219283234591256
-1.5463395823114673e-07,0.0,1759219283254075613
-2.309900359463249e-06,0.0,1759219283273699830
5.994718755052535e-06,0.0,1759219283295375654
-1.6012184046192805e-06,0.0,1759219283313110574
4.394842192569767e-06,0.0,1759219283336070281
-3.6309259559452757e-06,0.0,1759219283353163615
-4.773357325840847e-06,0.0,1759219283373977608
-4.502061417694494e-06,0.0,1759219283395517025
-5.050276063080887e-06,0.0,1759219283413232610
-3.9417966431126045e-06,0.0,1759219283435638137
-4.423213558478834e-06,0.0,1759219283454030151
-5.050821132762152e-06,0.0,1759219283474567172
-1.21467894635713e-06,0.0,1759219283494373868
-4.079612361058159e-06,0.0,1759219283514059785
-6.22100998702621e-07,0.0,1759219283534406538
-3.686530631401309e-06,0.0,1759219283554058268
-3.5525068990528832e-06,0.0,1759219283573439691
-1.8486656197830674e-06,0.0,1759219283595565065
-2.4399683280189937e-06,0.0,1759219283613787172
-1.4569892456528301e-06,0.0,1759219283635568307
-2.1531112380250905e-06,0.0,1759219283653311163
-2.9177038386955112e-06,0.0,1759219283674147365
2.4831010752686397e-07,0.0,1759219283695676584
-2.733670377021175e-06,0.0,1759219283714384781
2.9670807443379725e-07,0.0,1759219283735518242
-2.754084076031323e-06,0.0,1759219283754651040
-2.7096054316526717e-06,0.0,1759219283773069679
-1.1694016274665596e-06,0.0,1759219283795268027
-1.787955175732129e-06,0.0,1759219283813419284
-9.146445976840302e-07,0.0,1759219283835326293
-1.6123702446851453e-06,0.0,1759219283853130359
-2.3722048295757973e-06,0.0,1759219283874001689
7.339793806479923e-07,0.0,1759219283894302511
-1.9309383873923626e-06,0.0,1759219283914401853
9.672278845479676e-07,0.0,1759219283934750219
-1.8761141150877494e-06,0.0,1759219283954534809
-1.8982371970896993e-06,0.0,1759219283973757623
9.407259620315765e-06,0.0,1759219283994957906
3.568491443941389e-07,0.0,1759219284013526276
7.76868590549987e-06,0.0,1759219284035690468
1.7393344752868522e-06,0.0,1759219284053680749
-4.996887340738442e-06,0.0,1759219284074506818
1.4554874339306446e-05,0.0,1759219284094372908
-4.094894719513622e-06,0.0,1759219284114229967
1.542270971893739e-05,0.0,1759219284134447184
-5.33921532274056e-06,0.0,1759219284154231332
-7.154770363018672e-06,0.0,1759219284173634521
-6.652538929187729e-06,0.0,1759219284195066284
-6.789795562380062e-06,0.0,1759219284213150979
-5.832153642204708e-06,0.0,1759219284235201932
-5.769123873181359e-06,0.0,1759219284253231677
-5.399172009064958e-06,0.0,1759219284274576550
-4.1051615499665335e-06,0.0,1759219284294664315
-4.317752359451175e-06,0.0,1759219284314559632
-8.91288995405412e-06,0.0,1759219284334656248
-4.333549180122592e-06,0.0,1759219284354037389
-3.0959628613390516e-06,0.0,1759219284373192420
-1.1186146513819478e-06,0.0,1759219284394524088
-2.088640782711913e-06,0.0,1759219284414514237
-3.980651123137856e-07,0.0,1759219284434567198
-1.7986714491926514e-06,0.0,1759219284454304550
-1.7269534236263595e-06,0.0,1759219284473777774
-8.996459280108995e-07,0.0,1759219284495540759
-1.1818036799103785e-06,0.0,1759219284513587948
-7.097894785302419e-07,0.0,1759219284535146397
-1.0190078769667122e-06,0.0,1759219284553756490
-1.388975800982493e-06,0.0,1759219284574229529
1.7500072201890714e-07,0.0,1759219284594923982
-1.1841965735523864e-06,0.0,1759219284614507655
3.3246347901552523e-07,0.0,1759219284634362008
-1.1003447200739708e-06,0.0,1759219284654016805
-1.0967305517791765e-06,0.0,1759219284673157117
-3.8441109397862246e-07,0.0,1759219284695502464
-7.057275385143209e-07,0.0,1759219284713244143
-3.25313882050635e-07,0.0,1759219284736574676
-6.971120424168053e-07,0.0,1759219284753196439
-1.0644874841556644e-06,0.0,1759219284774221707
4.3526872377048725e-07,0.0,1759219284794293434
-8.342961127494117e-07,0.0,1759219284814566341
1.9033405636638532e-05,0.0,1759219284835041235
-8.204322336281369e-07,0.0,1759219284854210515
-2.078782281948093e-06,0.0,1759219284873159360
6.590381562978458e-06,0.0,1759219284895390263
1.1775139012501675e-06,0.0,1759219284913518811
5.599590922811609e-06,0.0,1759219284935447268
-1.2820301292799767e-07,0.0,1759219284953181475
-6.121779236522012e-06,0.0,1759219284973999320
-5.540885809073206e-06,0.0,1759219284994236597
-5.975858552870576e-06,0.0,1759219285014335497
-5.025941479649263e-06,0.0,1759219285034388880
-4.9727562976616854e-06,0.0,1759219285054742600
-4.532947711062161e-06,0.0,1759219285073866496
-3.888294394189462e-06,0.0,1759219285095371112
-3.6647859827740185e-06,0.0,1759219285113208576
-3.1930036206067913e-06,0.0,1759219285135204325
-3.01599980665757e-06,0.0,1759219285153250528
-2.7709977453108717e-06,0.0,1759219285174323710
-2.12471756897858e-06,0.0,1759219285194924956
-2.247161933631557e-06,0.0,1759219285214373767
-1.6766904944962338e-06,0.0,1759219285234824747
-1.869907222849708e-06,0.0,1759219285254258614
-1.7275775356373037e-06,0.0,1759219285273259586
-1.365625698627506e-06,0.0,1759219285295094873
-1.3864255867036991e-06,0.0,1759219285313272863
-1.1453409232987879e-06,0.0,1759219285335581744
-1.173193277330677e-06,0.0,1759219285353165676
-1.0852014766888274e-06,0.0,1759219285373728993
-8.010327720909826e-07,0.0,1759219285395176029
-8.204648134587711e-07,0.0,1759219285413293529
-5.073316922338554e-07,0.0,1759219285436218649
-8.249961494714181e-07,0.0,1759219285454873614
-7.877756646488528e-07,0.0,1759219285473171260
-2.3708995363525915e-07,0.0,1759219285494690626
-6.6691932778731e-07,0.0,1759219285514375809
-4.897781793686057e-07,0.0,1759219285534961786
-5.728672230489239e-07,0.0,1759219285553527768
-5.450104073487486e-07,0.0,1759219285573590216
-3.1996150831932404e-07,0.0,1759219285595208586
-3.864116647395725e-07,0.0,1759219285613241341
-2.5546710056489687e-07,0.0,1759219285635412933
-3.3284918575034475e-07,0.0,1759219285653562613
-4.232678759855191e-07,0.0,1759219285674318927
1.0643635207773845e-08,0.0,1759219285694485580
-3.4988306576749873e-07,0.0,1759219285714056988
5.31412946846212e-08,0.0,1759219285734424203
-3.282066721119204e-07,0.0,1759219285754152558
-3.240002354171439e-07,0.0,1759219285773269390
-1.2497234468096281e-07,0.0,1759219285795415623
-2.105814212706566e-07,0.0,1759219285813127708
-1.0024382830761597e-07,0.0,1759219285835706406
-1.9460806733726708e-07,0.0,1759219285853360972
-2.9741987549319446e-07,0.0,1759219285873995626
1.1072822248177047e-07,0.0,1759219285894581235
-2.554222963260236e-07,0.0,1759219285914073046
1.2451898387107563e-07,0.0,1759219285934939196
-2.656222995111004e-07,0.0,1759219285954315086
-2.855725621408707e-07,0.0,1759219285973215697
-7.977982043330243e-08,0.0,1759219285995092128
-2.2161059111028563e-07,0.0,1759219286013191764
-1.0272219227631245e-07,0.0,1759219286035765727
-1.7213975781776917e-07,0.0,1759219286053431436
-2.528225347850463e-07,0.0,1759219286074418470
1.1398482258117507e-07,0.0,1759219286094820733
-2.1985361521379708e-07,0.0,1759219286114034124
1.6082030717779484e-07,0.0,1759219286134175639
-2.0084015068698536e-07,0.0,1759219286154734537
-2.2560518678641009e-07,0.0,1759219286173653659
-2.3428386514198776e-08,0.0,1759219286195050169
-1.6908097724645924e-07,0.0,1759219286213134344
-5.636591564042517e-08,0.0,1759219286235350102
-1.7726497875420054e-07,0.0,1759219286253818148
-2.119521347900099e-07,0.0,1759219286274733022
-5.746275817661912e-06,0.0,1759219286294815495
-9.858411718023667e-07,0.0,1759219286314402379
-5.458703132757293e-06,0.0,1759219286334437493
-4.9945144839132e-07,0.0,1759219286354559534
5.592632443992127e-07,0.0,1759219286373529732
1.168806265648205e-06,0.0,1759219286396124651
9.482216098863804e-07,0.0,1759219286413220024
1.0889327153162874e-06,0.0,1759219286435080968
7.767895514532885e-07,0.0,1759219286453987545
6.521104977737502e-07,0.0,1759219286473524812
8.88736315643405e-07,0.0,1759219286495311470
6.291487882567948e-07,0.0,1759219286513251371
7.278912429338237e-07,0.0,1759219286535088316
4.811462440203372e-07,0.0,1759219286553673655
2.2378319070705987e-07,0.0,1759219286574860652
-9.523579219427087e-06,0.0,1759219286594878573
-2.0102116963380203e-08,0.0,1759219286614101920
-8.580033287514742e-06,0.0,1759219286634925629
1.2669194943755959e-06,0.0,1759219286654663637
1.8417687876423896e-06,0.0,1759219286673266781
-2.27091509171572e-06,0.0,1759219286695270260
1.9262790833437524e-07,0.0,1759219286713428082
-1.866506552859505e-06,0.0,1759219286736192544
8.191653623631502e-07,0.0,1759219286753394384
3.5449116304294328e-06,0.0,1759219286774359045
-5.543445486510861e-06,0.0,1759219286794763663
3.2099861376021292e-06,0.0,1759219286814129778
4.907681413032216e-06,0.0,1759219286834676575
3.970014345206459e-06,0.0,1759219286854196382
3.5395270080531825e-06,0.0,1759219286873580302
1.3637425293888717e-05,0.0,1759219286895012240
7.645533814734732e-06,0.0,1759219286913581737
1.1585233419209605e-05,0.0,1759219286935667116
5.13262162025159e-06,0.0,1759219286953194168
-1.3616312751681969e-06,0.0,1759219286974382312
-1.148436466004619e-05,0.0,1759219286994134412
-2.8184877014682715e-06,0.0,1759219287013966141
-1.1339560794743245e-05,0.0,1759219287034340112
-1.7383972997049023e-06,0.0,1759219287054834945
-8.784665148402994e-07,0.0,1759219287073592150
-4.703084700352404e-06,0.0,1759219287095474286
-5.281451084446997e-07,0.0,1759219287113167047
-3.6534122417384847e-06,0.0,1759219287135104172
-1.0736211873586563e-06,0.0,1759219287153331625
1.8480519424384737e-06,0.0,1759219287174127350
-6.22071983125263e-06,0.0,1759219287194648044
1.7052644131740119e-06,0.0,1759219287214392020
-6.595115396944631e-06,0.0,1759219287234717957
2.4124356382246313e-06,0.0,1759219287254058331
3.1827186708127275e-06,0.0,1759219287273336088
-1.016539016408505e-06,0.0,1759219287295460400
2.472759520864299e-06,0.0,1759219287313173074
9.136232510271472e-08,0.0,1759219287335159393
2.833757161805717e-06,0.0,1759219287354084654
3.7773879986452196e-06,0.0,1759219287373949884
-9.253854919691345e-07,0.0,1759219287394329496
2.718655142640716e-06,0.0,1759219287414493603
-1.4014231191798225e-06,0.0,1759219287434256721
2.455835865476266e-06,0.0,1759219287454422500
3.057893113907798e-06,0.0,1759219287473554438
-4.808298754414714e-06,0.0,1759219287494646788
3.0152655996859866e-06,0.0,1759219287513966250
5.317281467539383e-07,0.0,1759219287535564754
3.026397053676054e-06,0.0,1759219287553585658
3.281051723882023e-06,0.0,1759219287573296078
-3.166168003282414e-07,0.0,1759219287595408071
1.5860498399109513e-06,0.0,1759219287613671691
-3.5342405604461354e-07,0.0,1759219287635622720
1.663688788265152e-06,0.0,1759219287653826610
3.864481413425367e-06,0.0,1759219287674635348
-3.866257027369088e-06,0.0,1759219287694858533
3.467585046602823e-06,0.0,1759219287713979096
-3.514389140618929e-06,0.0,1759219287735112817
3.9886508028672445e-06,0.0,1759219287754582622
4.142297438135212e-06,0.0,1759219287773159860
6.396810932246144e-07,0.0,1759219287795212891
2.3258611111290346e-06,0.0,1759219287813365811
4.458789543491446e-07,0.0,1759219287835420333
2.28528275181089e-06,0.0,1759219287853252664
4.238743867729025e-06,0.0,1759219287874411068
-3.2171638859367325e-06,0.0,1759219287894455611
3.154849522232373e-06,0.0,1759219287914787190
-2.3190149351331944e-05,0.0,1759219287934352151
1.1019245687481289e-06,0.0,1759219287954742258
2.779800172945297e-06,0.0,1759219287973203183
1.2542891316512259e-06,0.0,1759219287995331853
2.870131763993918e-06,0.0,1759219288013138413
1.2688146213286499e-06,0.0,1759219288035366121
2.808452757907631e-06,0.0,1759219288053540337
4.5144399787619225e-06,0.0,1759219288074667571
-2.256945594489765e-06,0.0,1759219288094131785
3.4861561619252423e-06,0.0,1759219288114243236
-2.5039535620295098e-06,0.0,1759219288135274991
3.7508092206436283e-06,0.0,1759219288154383313
4.1188831332852834e-06,0.0,1759219288173135744
9.540358043680027e-07,0.0,1759219288195118833
3.211056507360414e-06,0.0,1759219288213189062
1.4035163225782329e-06,0.0,1759219288235549079
3.3006722772976344e-06,0.0,1759219288253750065
3.798829373238734e-06,0.0,1759219288274295991
2.894493901599812e-07,0.0,1759219288294191964
2.7570788930382264e-06,0.0,1759219288314432008
-2.4056240805288797e-06,0.0,1759219288334801422
2.849367218484114e-06,0.0,1759219288354271089
3.193400206676492e-06,0.0,1759219288373134339
3.971084153187022e-07,0.0,1759219288395535739
2.4880170415859457e-06,0.0,1759219288413584482
-6.8091759658074095e-06,0.0,1759219288435316595
1.1897956989823442e-06,0.0,1759219288453755207
4.175722013548905e-06,0.0,1759219288474127713
-8.629848215135884e-06,0.0,1759219288494718735
2.757045152544004e-06,0.0,1759219288514080546
-8.206654136169479e-06,0.0,1759219288534591412
3.5046894554320343e-06,0.0,1759219288554252512
5.606871039044403e-06,0.0,1759219288573174409
1.3970436297505793e-06,0.0,1759219288594605939
5.889410420903869e-06,0.0,1759219288614111798
1.3536274433194286e-06,0.0,1759219288634645900
5.4954890449092e-06,0.0,1759219288654048957
5.256928340071163e-06,0.0,1759219288673598810
2.914108022469215e-06,0.0,1759219288695192575
3.657442920219074e-06,0.0,1759219288713288479
2.3481090576609434e-06,0.0,1759219288735925133
3.224967031620189e-06,0.0,1759219288753666963
4.204318592184087e-06,0.0,1759219288774364752
-2.7997427744709114e-07,0.0,1759219288794454912
3.4400124710741096e-06,0.0,1759219288814102412
-1.891495356837868e-05,0.0,1759219288834793366
3.0354374134719124e-06,0.0,1759219288854422864
4.193079832596832e-06,0.0,1759219288874267176
-6.206140964205467e-06,0.0,1759219288895374996
-2.6749259631719543e-07,0.0,1759219288913775458
-5.4639020359250525e-06,0.0,1759219288935414206
9.113475258820556e-07,0.0,1759219288953160471
7.404747089511081e-06,0.0,1759219288974724762
4.204545502843574e-06,0.0,1759219288994870767
7.096004048051875e-06,0.0,1759219289014164680
3.7718807732611448e-06,0.0,1759219289034631442
6.132491744365754e-06,0.0,1759219289055016639
5.741208664555072e-06,0.0,1759219289073388314
3.974323120440363e-06,0.0,1759219289095369107
4.279256358470055e-06,0.0,1759219289114622678
3.218962183341047e-06,0.0,1759219289135506794
3.628543833306934e-06,0.0,1759219289153518482
4.1333947149213704e-06,0.0,1759219289174131462
1.0216222023951137e-06,0.0,1759219289194327282
3.3795199319660394e-06,0.0,1759219289214005798
5.507644460442268e-07,0.0,1759219289234769835
3.0281892473612084e-06,0.0,1759219289254607480
3.054503516778846e-06,0.0,1759219289273076289
1.5621707862734294e-06,0.0,1759219289295373628
2.4317199326413774e-06,0.0,1759219289313420060
1.5335266221346791e-06,0.0,1759219289335681733
2.292070435420031e-06,0.0,1759219289353288569
2.4160802108423243e-06,0.0,1759219289374624450
8.035317584923578e-07,0.0,1759219289394414529
1.8128617775198836e-06,0.0,1759219289414661983
-5.430051429161796e-07,0.0,1759219289434577591
1.674981717723473e-06,0.0,1759219289454365984
1.7798424222891392e-06,0.0,1759219289473321277
4.927151667188905e-07,0.0,1759219289495142628
1.3716525818250446e-06,0.0,1759219289513290240
4.714337499678459e-06,0.0,1759219289535532273
1.9579052810840552e-06,0.0,1759219289553549957
1.2658614807440774e-06,0.0,1759219289573550576
-7.805643789381378e-07,0.0,1759219289595695425
3.1989317798956575e-07,0.0,1759219289614533011
-8.715989779723526e-07,0.0,1759219289635261651
3.9573737864915974e-07,0.0,1759219289654603918
6.206814762027731e-07,0.0,1759219289673218540
-1.7204195108423301e-06,0.0,1759219289694822971
7.207587810852768e-07,0.0,1759219289714089054
-1.5663947167341974e-06,0.0,1759219289735080119
9.176773772905858e-07,0.0,1759219289754819781
1.0079387709310702e-06,0.0,1759219289773337667
-1.0403483991133994e-07,0.0,1759219289795372655
4.942794179862094e-07,0.0,1759219289813382879
-1.0668047238573877e-07,0.0,1759219289835056458
5.041052848747417e-07,0.0,1759219289853582834
1.1790644174668463e-06,0.0,1759219289874555574
-1.1580855187174909e-06,0.0,1759219289895214922
1.082627088905765e-06,0.0,1759219289914510808
-1.1921811299265133e-06,0.0,1759219289934471196
1.0916682333137953e-06,0.0,1759219289954301708
1.1509729635983108e-06,0.0,1759219289973172265
5.310609687273834e-06,0.0,1759219289995490961
2.879575267488968e-06,0.0,1759219290013445965
4.523777136476222e-06,0.0,1759219290035496941
2.0146661974347956e-06,0.0,1759219290053712931
-7.03831625535937e-07,0.0,1759219290074087675
6.936585565197394e-06,0.0,1759219290094624899
-5.044788564615715e-07,0.0,1759219290115113474
-2.3586292908921738e-05,0.0,1759219290134230877
-3.725102284501404e-06,0.0,1759219290154084597
-1.1871986045281058e-06,0.0,1759219290173404826
3.856678741200188e-06,0.0,1759219290195357138
1.7842379770392117e-06,0.0,1759219290213279099
2.9214667826551816e-06,0.0,1759219290235252112
9.107674557040322e-07,0.0,1759219290253155704
-1.1962726677102413e-06,0.0,1759219290274064346
6.369878822244182e-06,0.0,1759219290294804445
-1.3665824724104795e-06,0.0,1759219290313926881
5.695962249924791e-06,0.0,1759219290335049220
-2.437621020092047e-06,0.0,1759219290354138918
-3.088428079354296e-06,0.0,1759219290373498688
7.155058294551727e-07,0.0,1759219290395090558
-2.221621878355936e-06,0.0,1759219290413554294
-1.1220121554164626e-07,0.0,1759219290435564666
-2.670989247560705e-06,0.0,1759219290453372953
-3.437045993889335e-06,0.0,1759219290474128241
6.431378466372992e-07,0.0,1759219290495013954
-2.642991380955778e-06,0.0,1759219290514541838
3.706575002654011e-06,0.0,1759219290534887962
-2.8265814277613486e-06,0.0,1759219290554746122
-3.339251593225916e-06,0.0,1759219290573287042
-4.875735618438369e-06,0.0,1759219290595733643
-3.2666399487422938e-06,0.0,1759219290613555391
-3.813859697417888e-06,0.0,1759219290635393525
-2.336742428407029e-06,0.0,1759219290653121704
-1.8705097757932583e-06,0.0,1759219290673245923
-3.0050107333847786e-06,0.0,1759219290695272313
-1.9542406840896606e-06,0.0,1759219290713879349
-2.473378000898507e-06,0.0,1759219290736078334
-1.3850218402404747e-06,0.0,1759219290753414192
-2.7433076787926845e-07,0.0,1759219290774050684
7.000675115610977e-06,0.0,1759219290794762066
1.333825765428691e-08,0.0,1759219290814196870
6.697286033849152e-06,0.0,1759219290834762731
-8.299329460119747e-07,0.0,1759219290854818970
-1.2769070773459356e-06,0.0,1759219290873260035
1.7997783687136032e-06,0.0,1759219290895770522
-1.1028488021450392e-07,0.0,1759219290913575054
1.5143025288698718e-06,0.0,1759219290935709087
-4.81012478548484e-07,0.0,1759219290953416716
-2.5520371289755087e-06,0.0,1759219290974646025
4.301492865107164e-06,0.0,1759219290995247619
-2.3221368449095884e-06,0.0,1759219291014857316
4.353093763989839e-06,0.0,1759219291034691997
-2.6466879654308915e-06,0.0,1759219291054053639
-2.867916836465615e-06,0.0,1759219291073422818
9.555633085298236e-06,0.0,1759219291095646003
2.501394611758415e-06,0.0,1759219291113461350
7.967126075173827e-06,0.0,1759219291136172683
2.9524113434636244e-07,0.0,1759219291153094650
-7.220355785185194e-06,0.0,1759219291174385805
-1.128954397417878e-06,0.0,1759219291194304616
-6.785662868675802e-06,0.0,1759219291214294098
-8.097786867069797e-07,0.0,1759219291234695720
-6.274095363978324e-06,0.0,1759219291254495258
-6.327778906261043e-06,0.0,1759219291273576783
-3.1387182811795975e-06,0.0,1759219291295621716
-5.069269989959363e-06,0.0,1759219291313238662
-3.1518670706628063e-06,0.0,1759219291335129366
-4.727323515725422e-06,0.0,1759219291353273169
-5.012229940034347e-06,0.0,1759219291374360045
4.530439842234973e-07,0.0,1759219291394116660
-3.960513726239612e-06,0.0,1759219291414036555
1.0292062469940895e-06,0.0,1759219291434168979
-3.52200676912878e-06,0.0,1759219291454815852
-3.7616702987644027e-06,0.0,1759219291473448279
-9.265318257197964e-07,0.0,1759219291495077423
-2.864049624783627e-06,0.0,1759219291513187688
-8.623783026064327e-06,0.0,1759219291535449112
-3.93638484566838e-06,0.0,1759219291553207956
-2.0416820159138524e-06,0.0,1759219291574561174
-4.31693502578042e-06,0.0,1759219291594225457
-1.6842226210645364e-06,0.0,1759219291614463221
-3.7720513276320314e-06,0.0,1759219291634496358
-1.1317942555513769e-06,0.0,1759219291654326670
-5.096815933268474e-07,0.0,1759219291673433718
-5.03928600039495e-06,0.0,1759219291694249800
-3.306826803857277e-07,0.0,1759219291714537894
-1.5894699347461922e-06,0.0,1759219291736229030
1.4632899520795254e-07,0.0,1759219291753536252
4.553881193881916e-07,0.0,1759219291773833491
-1.5609394368702453e-06,0.0,1759219291795849992
-2.41623902452157e-07,0.0,1759219291813411116
-1.2833738975644271e-06,0.0,1759219291835212439
2.0812586521933863e-08,0.0,1759219291853593751
1.4203945797563919e-06,0.0,1759219291874609989
2.61170856844789e-05,0.0,1759219291894755251
2.462828692980476e-06,0.0,1759219291914451618
2.447418597229795e-05,0.0,1759219291935062979
-1.9477450485340237e-06,0.0,1759219291953963867
-3.493683628174327e-06,0.0,1759219291973139541
-2.618220953322955e-06,0.0,1759219291995602985
-3.784522150889575e-06,0.0,1759219292013103122
-2.3998590892461395e-06,0.0,1759219292035140037
-3.493735330499571e-06,0.0,1759219292053139215
-4.707788633633967e-06,0.0,1759219292074553707
5.043605219391224e-07,0.0,1759219292094830916
-4.13243550276147e-06,0.0,1759219292114037155
7.895067125550463e-07,0.0,1759219292134561881
-4.029169419976854e-06,0.0,1759219292154016045
-3.977403229394334e-06,0.0,1759219292173304236
-1.5320697078606783e-06,0.0,1759219292195164073
-2.5359554889657694e-06,0.0,1759219292213482497
-1.1737709834824248e-06,0.0,1759219292235088684
-2.2636037128350387e-06,0.0,1759219292253570629
-3.528321883891096e-06,0.0,1759219292274020739
1.3822330085272521e-06,0.0,1759219292294232212
-2.7915237402083697e-06,0.0,1759219292314992795
1.9018689312834092e-06,0.0,1759219292334429522
-2.6631534516904614e-06,0.0,1759219292354059677
-2.938935542744654e-06,0.0,1759219292373168662
-6.142535769230981e-07,0.0,1759219292395387878
-2.328785592110176e-06,0.0,1759219292413110207
-9.899531074733255e-07,0.0,1759219292435511516
-2.4250566072157403e-06,0.0,1759219292453417191
-2.8024343365144705e-06,0.0,1759219292474087881
1.2600688075174643e-06,0.0,1759219292494829710
-2.467568283299593e-06,0.0,1759219292514190286
1.3924158528702255e-06,0.0,1759219292534692465
-2.482157335159524e-06,0.0,1759219292554329359
-2.699514029161798e-06,0.0,1759219292573331541
-5.404320884083938e-07,0.0,1759219292595882765
-2.197570266165203e-06,0.0,1759219292613107313
-9.368870085307775e-07,0.0,1759219292635449244
-2.2935145271395127e-06,0.0,1759219292653151490
-2.3691230854009584e-06,0.0,1759219292673403118
9.84640727349307e-07,0.0,1759219292695253076
-2.5912249084049927e-06,0.0,1759219292714072055
9.177560956036562e-07,0.0,1759219292735493709
-2.8706475012817447e-06,0.0,1759219292754148215
-3.014860020224847e-06,0.0,1759219292773424253
2.12889993677959e-06,0.0,1759219292794607954
-2.5498793501374525e-06,0.0,1759219292814773701
1.474164369906731e-06,0.0,1759219292835041493
-2.748967850006009e-06,0.0,1759219292854193396
-2.780138742608405e-06,0.0,1759219292873255329
-8.745668271641481e-07,0.0,1759219292895015737
-1.7179663593241997e-06,0.0,1759219292913408702
-6.629430984728083e-07,0.0,1759219292935236198
-1.5511558841835945e-06,0.0,1759219292954082297
-2.61096088421687e-06,0.0,1759219292974219467
1.3026811767186521e-06,0.0,1759219292994512926
-2.22372633151702e-06,0.0,1759219293014055081
1.3397592300972186e-06,0.0,1759219293034942597
-2.4221985698946905e-06,0.0,1759219293054077386
-2.4396634145583075e-06,0.0,1759219293073820680
-6.135323315735258e-07,0.0,1759219293095271960
-1.4411822049003843e-06,0.0,1759219293113126130
-5.73876158398662e-06,0.0,1759219293135400918
-3.635551637617927e-06,0.0,1759219293153574630
-1.4798428961414784e-06,0.0,1759219293174684888
2.6373034041471493e-06,0.0,1759219293194287862
-5.849026872269229e-07,0.0,1759219293214206315
2.777552150432694e-06,0.0,1759219293235219393
-1.11463718120839e-06,0.0,1759219293254010377
-1.2608918422036067e-06,0.0,1759219293273443621
3.662513578740999e-07,0.0,1759219293295710290
-5.726365554993938e-07,0.0,1759219293313110128
2.9336317061524e-07,0.0,1759219293335269580
-6.667956932953492e-07,0.0,1759219293353106735
-1.6862096408119402e-06,0.0,1759219293374016928
2.0089516269184738e-05,0.0,1759219293394667246
-9.834955626619382e-07,0.0,1759219293414548502
1.9262179194985473e-05,0.0,1759219293435017929
-3.678506124458666e-06,0.0,1759219293454435580
-5.91579801984858e-06,0.0,1759219293473113432
4.422113580131449e-06,0.0,1759219293495086797
-4.155540523378664e-06,0.0,1759219293513386938
1.6207587481718809e-06,0.0,1759219293535160514
-5.714485498908556e-06,0.0,1759219293553172361
-8.052221306300493e-06,0.0,1759219293574004254
-6.750233666200691e-06,0.0,1759219293594405355
-7.2210812062019276e-06,0.0,1759219293614652202
-4.819661376572284e-06,0.0,1759219293635045495
-6.166691735299659e-06,0.0,1759219293654401418
-5.775260191746461e-06,0.0,1759219293673437519
-4.299303734627601e-06,0.0,1759219293695080899
-4.609851679879183e-06,0.0,1759219293713463252
-3.653857146347921e-06,0.0,1759219293735930807
-3.986922284180058e-06,0.0,1759219293753142428
-3.727743698621056e-06,0.0,1759219293773945806
-2.5105961750054824e-06,0.0,1759219293795193820
-2.7198956075280995e-06,0.0,1759219293813909977
-1.9903745738061543e-06,0.0,1759219293835094814
-2.7069287029643292e-06,0.0,1759219293854296849
-2.6373881732901568e-06,0.0,1759219293873172937
-5.966426803636583e-07,0.0,1759219293894278936
-2.21614906176142e-06,0.0,1759219293914175724
-2.8706273021086174e-07,0.0,1759219293935001459
-2.0926972938076427e-06,0.0,1759219293954063395
-2.0189777486984683e-06,0.0,1759219293973314312
-1.0540930700192298e-06,0.0,1759219293995599681
-1.4025706855162308e-06,0.0,1759219294013446777
-8.504846643821312e-07,0.0,1759219294035889699
-1.235411930394463e-06,0.0,1759219294054408440
-1.6940241699422351e-06,0.0,1759219294074085115
1.3472623745965275e-07,0.0,1759219294095435583
-1.5718890669083955e-06,0.0,1759219294114080921
2.0513737581852087e-07,0.0,1759219294134678745
-1.453987061988755e-06,0.0,1759219294154863428
-1.438610069414306e-06,0.0,1759219294173735334
-5.514863495410591e-07,0.0,1759219294195526691
-9.203037912465177e-07,0.0,1759219294213543506
-4.229446207193016e-07,0.0,1759219294235296611
-8.113226305689427e-07,0.0,1759219294253842643
-1.2629283611538407e-06,0.0,1759219294274508049
-1.7786729968007012e-05,0.0,1759219294294976851
-1.1263895709183192e-06,0.0,1759219294314029354
-1.62731137581025e-05,0.0,1759219294334519080
7.954941294808848e-07,0.0,1759219294354392560
2.683565089595776e-06,0.0,1759219294373139606
4.320728870868703e-06,0.0,1759219294395090482
3.5059716582435295e-06,0.0,1759219294413197458
3.61342771198823e-06,0.0,1759219294435533886
2.78317224133007e-06,0.0,1759219294453477886
1.956349075611737e-06,0.0,1759219294474516941
3.91992322381199e-06,0.0,1759219294494365726
1.62544510480002e-06,0.0,1759219294514342922
3.437928845303122e-06,0.0,1759219294535179775
9.799082684115179e-07,0.0,1759219294554108700
6.31646562080302e-07,0.0,1759219294573470923
-3.837786060304754e-06,0.0,1759219294595032246
-4.11658677119248e-07,0.0,1759219294613569466
-2.5146618275674362e-06,0.0,1759219294635486657
5.745005366531937e-07,0.0,1759219294653295166
1.6600899725760375e-06,0.0,1759219294674034533
-2.6423337739902142e-06,0.0,1759219294694842761
1.1819827922746722e-06,0.0,1759219294714480349
-2.5878958139388574e-06,0.0,1759219294735041334
1.4617579147937035e-06,0.0,1759219294754195707
2.124299143450153e-06,0.0,1759219294773725510
-5.3498215939452e-06,0.0,1759219294795226602
2.5357781489086015e-06,0.0,1759219294814062145
1.4552737457361083e-07,0.0,1759219294835642221
2.642489306074986e-06,0.0,1759219294853467798
2.9206428964429375e-06,0.0,1759219294873287452
-5.386527780270704e-07,0.0,1759219294895559239
1.3990303272889812e-06,0.0,1759219294913312561
-4.843704397586e-07,0.0,1759219294935059415
1.425721950833261e-06,0.0,1759219294953954328
3.640484868061784e-06,0.0,1759219294974331603
-3.7225899017701226e-06,0.0,1759219294995153925
3.5428678645703974e-06,0.0,1759219295013987263
-3.3943713030392755e-06,0.0,1759219295034818569
4.04582575950437e-06,0.0,1759219295053995419
4.1647360312413934e-06,0.0,1759219295073250062
7.588625124698865e-07,0.0,1759219295095232514
2.3552497495479594e-06,0.0,1759219295113966112
4.7292282565350207e-07,0.0,1759219295135551605
2.2925927387469293e-06,0.0,1759219295153392837
4.222298188566066e-06,0.0,1759219295174031895
-2.844642053637332e-06,0.0,1759219295194510556
3.660588605606824e-06,0.0,1759219295214031406
-3.0172306356187135e-06,0.0,1759219295234287259
3.551057075332414e-06,0.0,1759219295254668129
3.701713257431219e-06,0.0,1759219295273273106
5.011522223641747e-07,0.0,1759219295295012535
2.0609127438115526e-06,0.0,1759219295313065751
-8.938046268614682e-06,0.0,1759219295335496115
-1.9753709305511592e-06,0.0,1759219295353686306
5.303150609485986e-06,0.0,1759219295374914399
-1.0747601150314263e-06,0.0,1759219295394299643
5.049649759886262e-06,0.0,1759219295414068874
-1.0022295074023118e-06,0.0,1759219295434716807
4.967083216844256e-06,0.0,1759219295454216147
5.188433869644708e-06,0.0,1759219295473168709
2.0215432946783728e-06,0.0,1759219295495540858
4.14983353682244e-06,0.0,1759219295513180259
2.3033694489924363e-06,0.0,1759219295535736458
3.299227610170195e-06,0.0,1759219295553213922
4.4494473155545e-06,0.0,1759219295574121560
6.917852881290532e-06,0.0,1759219295594307183
4.245778408153067e-06,0.0,1759219295613972937
8.193592451027721e-06,0.0,1759219295634841684
2.8719639747223164e-06,0.0,1759219295654079006
2.042225948800817e-06,0.0,1759219295673506145
1.2968756455522811e-05,0.0,1759219295695484617
2.972909078288658e-06,0.0,1759219295713204845
8.362344054642393e-06,0.0,1759219295736101564
-5.029457498009515e-07,0.0,1759219295753502818
-3.5419108610816894e-06,0.0,1759219295774589509
-1.674951799098806e-06,0.0,1759219295794386642
-3.475295807181097e-06,0.0,1759219295814264141
8.930153253046149e-06,0.0,1759219295834375275
-1.396856912870946e-06,0.0,1759219295854434607
-3.442394381094471e-06,0.0,1759219295873162565
1.736105163768649e-05,0.0,1759219295894609297
-3.9787857466010864e-06,0.0,1759219295914435287
2.553996889402116e-06,0.0,1759219295935511846
-4.614368231183058e-06,0.0,1759219295953622709
-5.655160428362265e-06,0.0,1759219295973733609
-1.1082897415978055e-05,0.0,1759219295995159401
-8.331142293815792e-06,0.0,1759219296013450061
-9.548961790848672e-06,0.0,1759219296035179275
-6.619967840718739e-06,0.0,1759219296053211745
-3.6119954149177886e-06,0.0,1759219296074031855
-1.0588443555584019e-05,0.0,1759219296094364399
-2.7705211358601333e-06,0.0,1759219296114075324
-9.273375832885437e-06,0.0,1759219296134808608
-1.0727193132248584e-06,0.0,1759219296154007120
-4.2959288318976884e-07,0.0,1759219296173173019
1.1393857731618598e-05,0.0,1759219296195165945
5.136497179489918e-06,0.0,1759219296213200975
9.852723191367573e-06,0.0,1759219296235240864
3.3670221146946438e-06,0.0,1759219296253495918
-3.6086433675610496e-06,0.0,1759219296274297353
1.756377594860552e-05,0.0,1759219296294680702
-2.8083936005740704e-06,0.0,1759219296314470042
1.739539967411132e-05,0.0,1759219296334311854
-4.150735435788771e-06,0.0,1759219296354073862
-5.241407759712032e-06,0.0,1759219296373287889
-5.56058993741102e-06,0.0,1759219296395103946
-5.59571344672242e-06,0.0,1759219296413599262
-4.771341447285165e-06,0.0,1759219296435486557
-4.794485518278667e-06,0.0,1759219296453458688
-4.912129037603812e-06,0.0,1759219296474042645
-2.629267883167101e-06,0.0,1759219296494274847
-3.960318801403895e-06,0.0,1759219296514573043
-1.8713001872848548e-06,0.0,1759219296534872116
-3.4157653485639427e-06,0.0,1759219296554345858
-3.2909313668532076e-06,0.0,1759219296573136873
-7.312291460588475e-06,0.0,1759219296595873580
-3.2860467808454564e-06,0.0,1759219296613762538
-5.188159367262292e-06,0.0,1759219296635793483
-1.6216326133142e-06,0.0,1759219296653220538
-2.825124207169003e-07,0.0,1759219296674295320
-7.805570677209992e-06,0.0,1759219296694537621
-2.2002009296702453e-07,0.0,1759219296714308173
-7.0775561610662095e-06,0.0,1759219296735321730
1.1208403615826559e-06,0.0,1759219296754436112
1.9227421835128916e-06,0.0,1759219296773177424
3.2296168255265643e-06,0.0,1759219296795702382
2.091551293350242e-06,0.0,1759219296813117328
2.5172890977748625e-06,0.0,1759219296835136810
1.5014558513208986e-06,0.0,1759219296853304200
1.1870881032196422e-06,0.0,1759219296873864412
2.0347484218379193e-06,0.0,1759219296895557729
7.639500554592164e-07,0.0,1759219296914002199
1.6927394016368856e-06,0.0,1759219296934882214
4.6987661846442375e-07,0.0,1759219296954403393
1.8672431145192563e-07,0.0,1759219296973286709
-7.674007996593484e-06,0.0,1759219296995020209
4.922133595732939e-07,0.0,1759219297014072582
3.284265422641337e-06,0.0,1759219297034545013
1.6299073857707513e-06,0.0,1759219297054015751
1.3680526766922107e-06,0.0,1759219297073282797
2.303265242528616e-06,0.0,1759219297095158524
1.5334460843126698e-06,0.0,1759219297114143996
1.9265719569411093e-06,0.0,1759219297135431582
1.1372148750475539e-06,0.0,1759219297153452200
3.07482441111005e-07,0.0,1759219297173927472
-7.728561287398673e-06,0.0,1759219297195191797
4.5145643226670883e-07,0.0,1759219297214154312
-7.166229754106911e-06,0.0,1759219297234774490
1.4537549379604192e-06,0.0,1759219297254170121
1.9056001384508516e-06,0.0,1759219297273151600
-1.6955060992831852e-06,0.0,1759219297295165357
4.053748763518667e-07,0.0,1759219297313617523
-1.5164650603160954e-06,0.0,1759219297335286739
6.966758135742835e-07,0.0,1759219297353115685
3.0693351837441767e-06,0.0,1759219297374060050
5.709084538762231e-06,0.0,1759219297394649645
2.9534206795187015e-06,0.0,1759219297414025468
5.175035038630891e-06,0.0,1759219297434998042
2.0299939159895434e-06,0.0,1759219297454467751
1.631373743014179e-06,0.0,1759219297473713267
2.6140730209594377e-06,0.0,1759219297495803737
1.6833718708118638e-06,0.0,1759219297513630621
2.146977961262101e-06,0.0,1759219297535190773
1.2512968831460336e-06,0.0,1759219297553674771
2.786697557439058e-07,0.0,1759219297574027304
2.7976069833281072e-06,0.0,1759219297594586650
1.368699115548351e-07,0.0,1759219297614070271
2.5297988141855985e-06,0.0,1759219297634450906
-1.514129013779275e-07,0.0,1759219297654539530
-4.5005514954189025e-07,0.0,1759219297673171416
7.299806454365877e-07,0.0,1759219297695636188
-3.490871791857204e-07,0.0,1759219297713398160
2.99093147399308e-07,0.0,1759219297736298371
-6.469518484872018e-07,0.0,1759219297753190218
-9.27567584134044e-07,0.0,1759219297774155945
1.3190970143380119e-06,0.0,1759219297794855880
-8.335494767779617e-07,0.0,1759219297814284180
3.9625579541914586e-07,0.0,1759219297834381931
-7.873732402200274e-07,0.0,1759219297854348183
-9.665838869132269e-07,0.0,1759219297873140160
1.427703284615989e-06,0.0,1759219297894776546
-9.872505848282927e-07,0.0,1759219297914187888
-2.408648179943436e-07,0.0,1759219297935621813
-9.82829153172518e-07,0.0,1759219297953603643
-1.0477036520129182e-06,0.0,1759219297973859600
7.365725664650138e-08,0.0,1759219297995197144
-4.981071015685471e-07,0.0,1759219298013456937
9.043729115468524e-07,0.0,1759219298035587640
-1.3146925277173168e-06,0.0,1759219298053962307
-1.4231848974497594e-06,0.0,1759219298073699752
1.3889936135713025e-06,0.0,1759219298094923851
-1.3650180827471244e-06,0.0,1759219298113954103
8.587184283863629e-07,0.0,1759219298134750490
-1.531372505436005e-06,0.0,1759219298154029055
-1.5499059510961224e-06,0.0,1759219298173162980
-5.014844231338429e-07,0.0,1759219298195845072
-9.980302148067355e-07,0.0,1759219298213645583
-3.881258057011504e-07,0.0,1759219298235157512
-9.084026674578049e-07,0.0,1759219298253505383
-1.4852707229759394e-06,0.0,1759219298274350728
7.47844340736658e-07,0.0,1759219298294717787
-1.1845191497077485e-06,0.0,1759219298315105888
9.287520298208504e-07,0.0,1759219298335114031
-1.2229715552397588e-06,0.0,1759219298354379076
-1.2555748631197225e-06,0.0,1759219298373248400
-2.590631981816571e-07,0.0,1759219298395451432
-7.489457874168255e-07,0.0,1759219298413155618
-2.1291910198230882e-07,0.0,1759219298435848896
-7.307297909011983e-07,0.0,1759219298453735222
-1.293977472848366e-06,0.0,1759219298474439287
7.927518990662741e-07,0.0,1759219298494867016
-1.1149539902464306e-06,0.0,1759219298514396851
8.055679543182646e-07,0.0,1759219298535222460
-1.2129622366075563e-06,0.0,1759219298554539227
-1.3329503936173343e-06,0.0,1759219298573313237
-5.659066114790693e-06,0.0,1759219298595139385
-1.8631881577024676e-06,0.0,1759219298613168637
-3.869727458389737e-06,0.0,1759219298635262727
-1.7338742211004613e-06,0.0,1759219298653170085
6.110408910001338e-07,0.0,1759219298674047851
-6.730340309106432e-06,0.0,1759219298694842750
8.106572277142297e-07,0.0,1759219298714363740
-6.872554546606245e-06,0.0,1759219298734962046
1.7389217514564764e-06,0.0,1759219298754153851
2.499613179890366e-06,0.0,1759219298773824594
3.9337291413343695e-06,0.0,1759219298795342817
2.7106263365738887e-06,0.0,1759219298813700170
3.1305917498094067e-06,0.0,1759219298835316499
1.970634619549702e-06,0.0,1759219298853184569
1.5956449031599302e-06,0.0,1759219298873537905
2.488829305504758e-06,0.0,1759219298895020956
1.1270290442389568e-06,0.0,1759219298913937495
2.10906491120489e-06,0.0,1759219298934490419
7.731982221295124e-07,0.0,1759219298954232128
4.4390828760393453e-07,0.0,1759219298973159264
1.2128652678780724e-06,0.0,1759219298995451967
3.574499076929126e-07,0.0,1759219299013125862
9.396658126064677e-07,0.0,1759219299035651307
7.447684325958389e-08,0.0,1759219299053146043
-9.324450655967979e-08,0.0,1759219299073504283
8.801265052665814e-07,0.0,1759219299095797087
2.2367864120619323e-07,0.0,1759219299113686395
7.253580564079815e-07,0.0,1759219299135839304
-4.978924792241782e-07,0.0,1759219299153896823
-6.815876310030876e-07,0.0,1759219299173299126
1.3791935564714884e-06,0.0,1759219299195596870
-9.105257441889652e-07,0.0,1759219299214019938
-9.146527480064339e-06,0.0,1759219299234959882
-9.466877472647405e-07,0.0,1759219299254089486
-3.1865911914938025e-07,0.0,1759219299273456889
-3.95588682692337e-06,0.0,1759219299295033128
-1.593965943647857e-06,0.0,1759219299313564288
-3.30703295543649e-06,0.0,1759219299335858731
-8.234936783798443e-07,0.0,1759219299353716991
1.7708513521528121e-06,0.0,1759219299374657867
4.441935461908038e-06,0.0,1759219299394710057
2.002489541793715e-06,0.0,1759219299414515544
-6.433393856342672e-06,0.0,1759219299434795031
1.1112936667889616e-06,0.0,1759219299454148764
1.5081361623739804e-06,0.0,1759219299473590481
-2.0860573645382913e-06,0.0,1759219299495493543
9.54649627332647e-08,0.0,1759219299513152509
-1.7053285607947973e-06,0.0,1759219299535367423
4.6137179462628653e-07,0.0,1759219299553776838
2.857356351552433e-06,0.0,1759219299574356843
5.762407955760326e-06,0.0,1759219299594483974
2.8857215992494832e-06,0.0,1759219299614362174
5.383506029959581e-06,0.0,1759219299634641043
2.072254547574237e-06,0.0,1759219299654239082
1.5168298329876233e-06,0.0,1759219299673187254
2.6706822039800383e-06,0.0,1759219299695335848
1.2950534411068222e-06,0.0,1759219299713619542
1.9006736288711117e-06,0.0,1759219299735192365
1.1358972730439375e-06,0.0,1759219299753447614
2.9039773061415704e-07,0.0,1759219299774215713
1.7592607704442917e-06,0.0,1759219299794317700
3.377418522602633e-07,0.0,1759219299814069201
2.9053581706315785e-06,0.0,1759219299834315451
2.666059389316298e-08,0.0,1759219299854086184
-3.0122415679378505e-07,0.0,1759219299873241845
9.36563127291675e-07,0.0,1759219299894993411
-1.5836931347128067e-07,0.0,1759219299913583804
5.417682479910727e-07,0.0,1759219299935618383
-4.4368067879973927e-07,0.0,1759219299953277276
-5.923377703886821e-07,0.0,1759219299973855504
1.4653479577013212e-06,0.0,1759219299995734398
-9.872080164913434e-07,0.0,1759219300013996841
1.0495979239087353e-05,0.0,1759219300034588289
3.1556131178442953e-07,0.0,1759219300054369595
-1.731202310504746e-06,0.0,1759219300073544310
1.8495003365645234e-05,0.0,1759219300094948327
-3.0206899329054046e-06,0.0,1759219300114276176
1.621288027383203e-05,0.0,1759219300134783654
-5.492824177490208e-06,0.0,1759219300154124073
-6.424469561484457e-06,0.0,1759219300173363170
-6.744883518897164e-06,0.0,1759219300195611470
-6.604046707931078e-06,0.0,1759219300213568407
-5.748890572958125e-06,0.0,1759219300235760137
-5.6047316049490434e-06,0.0,1759219300253494100
-5.548868631994703e-06,0.0,1759219300274170178
-3.4889001735581907e-06,0.0,1759219300294463577
-4.496125512703482e-06,0.0,1759219300314562953
-2.673390461800552e-06,0.0,1759219300335522803
-3.950166584514522e-06,0.0,1759219300354060336
-3.665615717214299e-06,0.0,1759219300373175446
-2.6775035287151985e-06,0.0,1759219300395614987
-2.7837689100249036e-06,0.0,1759219300413321266
-2.1775092974209166e-06,0.0,1759219300436440180
-2.3730808158162274e-06,0.0,1759219300453210671
-2.5924179867532924e-06,0.0,1759219300474139159
-8.940267203194743e-07,0.0,1759219300494253943
-2.0927739756924798e-06,0.0,1759219300514328654
-5.477364153851515e-07,0.0,1759219300534725476
-1.881052165011743e-06,0.0,1759219300554252472
-1.7965063593031802e-06,0.0,1759219300573571609
-6.566506338440883e-06,0.0,1759219300595183688
-3.7322255863398443e-06,0.0,1759219300613193005
-5.5307432766796145e-06,0.0,1759219300635648819
-2.5901273446252633e-06,0.0,1759219300653603096
5.037590909923743e-07,0.0,1759219300674242364
-8.418223129726294e-06,0.0,1759219300694333973
2.6883994847040265e-07,0.0,1759219300714576031
-8.184564255354675e-06,0.0,1759219300734471153
8.928325071048115e-07,0.0,1759219300754532584
1.873758920320022e-06,0.0,1759219300773116944
-2.165994286841995e-06,0.0,1759219300795646136
1.4662100047821218e-06,0.0,1759219300813441063
-8.652054056219242e-07,0.0,1759219300835121841
2.063231522984859e-06,0.0,1759219300853632812
3.0653717272941783e-06,0.0,1759219300873928088
-1.5405803876111879e-06,0.0,1759219300894683007
2.3335067895544594e-06,0.0,1759219300914117963
-1.7018324280597601e-06,0.0,1759219300934377871
2.2637047174390694e-06,0.0,1759219300954224716
2.889879948418486e-06,0.0,1759219300973406150
3.958146070820348e-06,0.0,1759219300995448932
2.899518737836746e-06,0.0,1759219301013409295
3.340512974412086e-06,0.0,1759219301035723059
2.200447981517945e-06,0.0,1759219301053491084
1.807835541919905e-06,0.0,1759219301073705931
2.713157363161166e-06,0.0,1759219301095298945
1.3018273552047757e-06,0.0,1759219301114234243
2.314317419102823e-06,0.0,1759219301134443901
1.4681919500723667e-06,0.0,1759219301153421531
5.43873857270926e-07,0.0,1759219301173989342
2.847330871448933e-06,0.0,1759219301194481471
4.0446751417474735e-07,0.0,1759219301214463287
2.6069550177817644e-06,0.0,1759219301234793528
-1.3055458364147432e-08,0.0,1759219301254009059
-1.8500762981364374e-07,0.0,1759219301273272058
8.143494743273583e-07,0.0,1759219301295716648
1.595214682833219e-07,0.0,1759219301313893651
7.051922590187099e-07,0.0,1759219301335063457
3.5594256723129864e-08,0.0,1759219301353365082
-6.855702298172779e-07,0.0,1759219301374260821
1.6322157030469643e-06,0.0,1759219301394601975
-6.097599479737162e-07,0.0,1759219301414186647
-8.77502113076472e-06,0.0,1759219301435428203
-5.627725051928902e-07,0.0,1759219301454492022
3.6206031322104534e-08,0.0,1759219301473505301
-3.5860872231077254e-06,0.0,1759219301495419739
-1.1730055191689511e-06,0.0,1759219301513144046
-2.9618073156579453e-06,0.0,1759219301535463553
-5.172183988508513e-07,0.0,1759219301553134324
2.052140284088792e-06,0.0,1759219301574076144
-6.081530837366007e-06,0.0,1759219301594180576
1.7019609923514745e-06,0.0,1759219301614024256
-5.5763719695396345e-06,0.0,1759219301635138796
2.7313155535237573e-06,0.0,1759219301654362545
3.037830708730893e-06,0.0,1759219301673373514
-6.090622211407734e-07,0.0,1759219301694996634
2.4791897167001387e-06,0.0,1759219301713398146
-3.990203703471288e-07,0.0,1759219301735787732
1.6048843143296474e-06,0.0,1759219301753187389
3.804657821614322e-06,0.0,1759219301774444652
-3.3796879196456173e-06,0.0,1759219301794241215
3.1801907861168227e-06,0.0,1759219301813991325
-3.835316237959708e-06,0.0,1759219301834916261
3.5278819170258892e-06,0.0,1759219301854488570
4.050072860426505e-06,0.0,1759219301873388823
4.1787858152841597e-07,0.0,1759219301895938382
3.3098553489258897e-06,0.0,1759219301913256754
1.2176719242663438e-06,0.0,1759219301935880756
3.646390132310572e-06,0.0,1759219301953130923
3.799391486549219e-06,0.0,1759219301973631844
4.6279118398966983e-07,0.0,1759219301995445253
3.633269508888464e-06,0.0,1759219302014327616
7.031843419010357e-08,0.0,1759219302034481617
3.230905593038887e-06,0.0,1759219302054506643
3.64171915018176e-06,0.0,1759219302073121215
-2.9444104024052985e-06,0.0,1759219302094857136
3.4837972939673767e-06,0.0,1759219302114519089
1.212515466362701e-06,0.0,1759219302135174436
3.2445486526357447e-06,0.0,1759219302153207195
3.3776929828504296e-06,0.0,1759219302173591169
5.7534222000912186e-06,0.0,1759219302195468551
4.25240037349025e-06,0.0,1759219302213552953
4.865453080238399e-06,0.0,1759219302235658005
3.3081103497971214e-06,0.0,1759219302253461283
1.746055284915318e-06,0.0,1759219302274632303
5.567352291810069e-06,0.0,1759219302294674180
1.3918597613741486e-06,0.0,1759219302314384506
4.950663520199491e-06,0.0,1759219302334687275
6.045012321015721e-07,0.0,1759219302354016270
2.6191504192875984e-07,0.0,1759219302373555979
1.8775812061813977e-06,0.0,1759219302395656589
7.07887272254346e-07,0.0,1759219302413241919
1.498546225557925e-06,0.0,1759219302435876236
3.226195279170147e-07,0.0,1759219302453418108
-9.073960965344323e-07,0.0,1759219302474167456
2.9145970218602544e-06,0.0,1759219302494280185
-7.293093952501405e-07,0.0,1759219302514213883
2.8278602755336245e-06,0.0,1759219302534473361
-1.0250142687361297e-06,0.0,1759219302554084447
-1.1943992177587234e-06,0.0,1759219302573069379
-4.930224632098682e-06,0.0,1759219302595661819
-2.7892538870836367e-06,0.0,1759219302613724768
-4.211909861045876e-06,0.0,1759219302635588969
-1.939056771984732e-06,0.0,1759219302653205498
3.6600416481753485e-07,0.0,1759219302674343098
-6.447723782234925e-06,0.0,1759219302694559793
3.3789389451482224e-07,0.0,1759219302714128162
-5.9974291149622e-06,0.0,1759219302734403397
1.0456504096590179e-06,0.0,1759219302754072776
1.7197163989569348e-06,0.0,1759219302773677784
-1.5174799678054681e-06,0.0,1759219302795227241
1.1975406958327688e-06,0.0,1759219302813264806
-5.540581643107406e-07,0.0,1759219302835497800
1.7695195069591149e-06,0.0,1759219302853241954
2.4831766719176086e-06,0.0,1759219302874298473
-1.126157198127245e-06,0.0,1759219302894549990
1.81279688522812e-06,0.0,1759219302914043342
-3.7069319844094752e-06,0.0,1759219302934254882
1.86045683930012e-06,0.0,1759219302954819028
2.3762178062460294e-06,0.0,1759219302973187529
4.647047984057127e-06,0.0,1759219302995073982
2.6014160099590625e-06,0.0,1759219303013180131
3.5076645055040725e-06,0.0,1759219303035750366
1.59292758396496e-06,0.0,1759219303053105121
1.1091815889182494e-06,0.0,1759219303073330530
1.2313240597740961e-05,0.0,1759219303095302287
9.310309646301503e-07,0.0,1759219303114107104
1.114125750031248e-05,0.0,1759219303134687017
-4.1995409633186977e-07,0.0,1759219303154496393
-2.722916022024212e-06,0.0,1759219303173422253
-9.605859840786337e-06,0.0,1759219303195035448
-3.173976527354561e-06,0.0,1759219303214402992
-9.379758230575932e-06,0.0,1759219303234933966
-1.6890318779150325e-06,0.0,1759219303254075266
-1.0267327236855146e-06,0.0,1759219303273432705
-3.858785658935482e-06,0.0,1759219303295189910
-1.8453044876272592e-06,0.0,1759219303313751719
-3.2614350200351063e-06,0.0,1759219303335178088
-1.1770847520852798e-06,0.0,1759219303353286300
1.0343951093374615e-06,0.0,1759219303374033254
-5.350960249451415e-06,0.0,1759219303395097465
1.3242152941403497e-06,0.0,1759219303414186501
-4.8216671722221664e-06,0.0,1759219303434698679
1.9922760643697493e-06,0.0,1759219303454026858
2.259690103506249e-06,0.0,1759219303473504214
-6.87580815935987e-07,0.0,1759219303495299191
9.309069105667805e-07,0.0,1759219303513530216
-6.021553109237286e-07,0.0,1759219303535876356
1.1191737699077333e-06,0.0,1759219303553684832
2.9593631792511575e-06,0.0,1759219303574583282
7.390419723199886e-06,0.0,1759219303594920797
2.8175093652456994e-06,0.0,1759219303614075045
6.649496164815324e-06,0.0,1759219303634923113
1.7152454181460314e-06,0.0,1759219303654621159
1.2110183978343874e-06,0.0,1759219303673175090
2.9350831164727225e-06,0.0,1759219303695602977
1.5447685776511882e-06,0.0,1759219303713361210
2.4140904826468277e-06,0.0,1759219303735113453
1.0557342654854899e-06,0.0,1759219303753477245
-4.172237378916752e-07,0.0,1759219303774025603
3.7219299947082225e-06,0.0,1759219303794873488
-5.277786361455053e-07,0.0,1759219303814364784
3.4478679355705973e-06,0.0,1759219303834797641
-9.475874646271477e-07,0.0,1759219303854390461
-1.35281932559092e-06,0.0,1759219303873471771
6.587929089046236e-07,0.0,1759219303895619136
-3.868687117982455e-07,0.0,1759219303913412702
-4.3078328734999305e-06,0.0,1759219303935163478
-1.9957922535764044e-06,0.0,1759219303953598647
-1.0331601765898425e-06,0.0,1759219303974423489
1.3419295103506525e-05,0.0,1759219303994272644
1.9228473773458036e-06,0.0,1759219304014566228
1.2336129945991193e-05,0.0,1759219304034202291
8.572694979548992e-07,0.0,1759219304054480858
-1.5857530521118982e-06,0.0,1759219304073464021
6.065945994775463e-06,0.0,1759219304095719125
-1.3196479872742775e-06,0.0,1759219304113350967
4.552199024852409e-06,0.0,1759219304135630066
-2.9626000203208636e-06,0.0,1759219304153292153
-4.1545946283295005e-06,0.0,1759219304173446250
5.2076392765499985e-06,0.0,1759219304195529041
-4.914408914762584e-06,0.0,1759219304214482209
5.400693440175565e-06,0.0,1759219304234278103
-4.650001306918291e-06,0.0,1759219304254433642
-6.340105107808296e-06,0.0,1759219304273576969
1.3422501628682536e-05,0.0,1759219304294904414
-6.92252183546384e-06,0.0,1759219304314085653
1.2283174949730051e-05,0.0,1759219304334810413
-8.456223061487206e-06,0.0,1759219304354175407
-9.090688592751074e-06,0.0,1759219304373192463
1.5290071566644976e-07,0.0,1759219304395275630
-4.648045313591571e-06,0.0,1759219304413536318
3.695145274853417e-07,0.0,1759219304435430834
-4.717517655843147e-06,0.0,1759219304453635995
-1.0222493278495207e-05,0.0,1759219304474691515
9.983161596696108e-06,0.0,1759219304494563506
-8.380513312159345e-06,0.0,1759219304514082349
9.713019553189605e-06,0.0,1759219304534918035
-9.802887012599624e-06,0.0,1759219304554098059
-1.0200904365709841e-05,0.0,1759219304573159318
-1.0724574597675875e-05,0.0,1759219304595469124
-9.833069318522787e-06,0.0,1759219304613176676
-8.981277343235067e-06,0.0,1759219304635514254
-8.132179063633009e-06,0.0,1759219304653408303
-7.377315787678507e-06,0.0,1759219304674009361
1.1703576032522852e-05,0.0,1759219304694592603
-5.32108615911785e-06,0.0,1759219304714554891
1.2529878391667194e-05,0.0,1759219304734650221
-5.959778215630783e-06,0.0,1759219304754539611
-6.714172031012109e-06,0.0,1759219304773333754
-7.841689751659516e-06,0.0,1759219304795509225
-7.089426393710554e-06,0.0,1759219304813091928
-6.643015258978348e-06,0.0,1759219304835604740
-5.8733310861965045e-06,0.0,1759219304853723732
-5.1605455319616484e-06,0.0,1759219304874384010
1.3789835997776645e-05,0.0,1759219304894231610
-2.7219930217756377e-06,0.0,1759219304914436111
1.431101027146475e-05,0.0,1759219304934583106
-4.08860341273742e-06,0.0,1759219304954190663
-5.767619165046937e-06,0.0,1759219304973214508
-6.524373327120709e-06,0.0,1759219304995497533
-5.7005541098746085e-06,0.0,1759219305013177793
-5.4746473509789356e-06,0.0,1759219305035131476
-4.608627976149388e-06,0.0,1759219305053307370
-4.0200277443463775e-06,0.0,1759219305074625014
-4.13513800044145e-06,0.0,1759219305094915800
-3.298505947287393e-06,0.0,1759219305114975837
-3.807661364040518e-06,0.0,1759219305134831976
-2.584384046824551e-06,0.0,1759219305154298766
-2.2206164326341683e-06,0.0,1759219305173187349
-2.417604559589301e-06,0.0,1759219305195282955
-1.8249168166098151e-06,0.0,1759219305213624485
-1.8836128149716952e-06,0.0,1759219305235237099
-1.3776026463289993e-06,0.0,1759219305253159014
-1.1722017737132974e-06,0.0,1759219305273336518
-1.4342598280130032e-06,0.0,1759219305295445029
-1.0707998132841404e-06,0.0,1759219305313587160
-1.057573076071035e-05,0.0,1759219305335368330
-1.2271564114359952e-06,0.0,1759219305354625784
6.830596759710396e-07,0.0,1759219305373898897
4.5777145595084593e-07,0.0,1759219305394670225
1.4974399559467974e-06,0.0,1759219305413949325
8.785939830391429e-07,0.0,1759219305434727485
1.3903849228789923e-06,0.0,1759219305453998136
1.2953293813409685e-06,0.0,1759219305473821348
9.420410222958387e-07,0.0,1759219305495393321
9.776964936900789e-07,0.0,1759219305513748938
7.60590478312739e-07,0.0,1759219305536065921
8.275606786657871e-07,0.0,1759219305553550258
9.083238222717188e-07,0.0,1759219305574393550
3.1457665987619127e-07,0.0,1759219305594725360
7.434916079770596e-07,0.0,1759219305614637755
1.9220039223831026e-07,0.0,1759219305634556502
6.57363975175413e-07,0.0,1759219305654161160
6.285451024561795e-07,0.0,1759219305673101569
3.622919183119775e-07,0.0,1759219305695455891
4.453277525222143e-07,0.0,1759219305713580981
2.9087830372177245e-07,0.0,1759219305735632607
3.8584005834204553e-07,0.0,1759219305753861551
5.008637782517876e-07,0.0,1759219305774059188
1.2142743549162164e-09,0.0,1759219305794529583
4.197814120220333e-07,0.0,1759219305814103604
-3.091955402447871e-08,0.0,1759219305835271208
4.1651856910383176e-07,0.0,1759219305854595492
4.3021830327079705e-07,0.0,1759219305873145086
1.8854567862133686e-07,0.0,1759219305895359721
2.732970389779931e-07,0.0,1759219305913254719
-7.178827672586005e-06,0.0,1759219305935920017
-2.7365908409534355e-06,0.0,1759219305953239705
1.7717920816433242e-06,0.0,1759219305974179362
-1.647001980422387e-05,0.0,1759219305994363950
1.3707109211467658e-06,0.0,1759219306014016452
-1.5113439456174757e-05,0.0,1759219306034940616
3.5532618365509284e-06,0.0,1759219306054688456
5.3930485956415835e-06,0.0,1759219306073163522
-3.1508712004559937e-06,0.0,1759219306095352962
4.117466515562242e-06,0.0,1759219306113147510
-6.813186496791747e-07,0.0,1759219306135267103
5.237875571746864e-06,0.0,1759219306153623782
7.14103024465693e-06,0.0,1759219306174294886
7.585284841186517e-06,0.0,1759219306194247466
6.629136980814098e-06,0.0,1759219306214219367
6.510468714605783e-06,0.0,1759219306234706104
5.3775731761509625e-06,0.0,1759219306253954862
4.737189143745522e-06,0.0,1759219306273508954
5.2681121995246966e-06,0.0,1759219306294415193
3.7961058582364025e-06,0.0,1759219306314179300
3.7119836918628077e-06,0.0,1759219306335327154
3.001528507744302e-06,0.0,1759219306353153091
2.6307061414935036e-06,0.0,1759219306373761622
2.8163019154750037e-06,0.0,1759219306395110009
2.2876830960882615e-06,0.0,1759219306413546551
2.2927377765008945e-06,0.0,1759219306435722729
1.796348401296685e-06,0.0,1759219306453655745
1.2971236580447616e-06,0.0,1759219306474172740
2.1526100253732245e-06,0.0,1759219306494443809
1.0433741956534153e-06,0.0,1759219306514368714
1.8554316182648403e-06,0.0,1759219306534960913
7.258326578508313e-07,0.0,1759219306554732708
5.786142330921575e-07,0.0,1759219306573225516
9.332792461806128e-07,0.0,1759219306595450398
5.978370463775716e-07,0.0,1759219306613316255
7.626443278595486e-07,0.0,1759219306635302116
4.362517593221285e-07,0.0,1759219306653562871
9.531402049717625e-08,0.0,1759219306674559297
1.0041735671239755e-06,0.0,1759219306695279592
1.4563968950313991e-08,0.0,1759219306714410373
8.838980512657938e-07,0.0,1759219306735050454
-1.2304544167000022e-07,0.0,1759219306754410021
-1.8029103437186216e-07,0.0,1759219306773347084
2.2898910700323292e-07,0.0,1759219306795606473
-2.891509642184911e-08,0.0,1759219306813162196
1.840388522173685e-07,0.0,1759219306835625568
-8.121803715728169e-08,0.0,1759219306853171778
-3.5720100824481174e-07,0.0,1759219306874148843
1.9152525559158285e-05,0.0,1759219306894282637
6.301574294325365e-07,0.0,1759219306914157309
1.8506287728809307e-05,0.0,1759219306934424668
-1.578792980526567e-06,0.0,1759219306954019204
-3.622841314128317e-06,0.0,1759219306973527252
-4.007470016754317e-06,0.0,1759219306995509120
-3.9481600312584985e-06,0.0,1759219307013579772
-3.5692211334868724e-06,0.0,1759219307035428870
-3.335133851967307e-06,0.0,1759219307053167934
-3.0491814134245674e-06,0.0,1759219307074634663
-2.5928150423649477e-06,0.0,1759219307094426181
-2.4603086443082886e-06,0.0,1759219307114038170
-1.9749980940983962e-06,0.0,1759219307134422561
-2.021641550000336e-06,0.0,1759219307154132272
-1.850128562157075e-06,0.0,1759219307173207566
-1.5374137489060476e-06,0.0,1759219307195093818
-1.4883617628140165e-06,0.0,1759219307213588388
-1.2656086805127668e-06,0.0,1759219307235242300
-1.2335576757844089e-06,0.0,1759219307253557395
-1.1312677830634269e-06,0.0,1759219307273274401
-8.996304117808833e-07,0.0,1759219307295612175
-9.41536762394494e-07,0.0,1759219307314123052
-1.709641833542286e-05,0.0,1759219307334197529
-3.2072293340916306e-06,0.0,1759219307353986923
-2.0238225402977804e-07,0.0,1759219307373301568
1.1515964542619356e-06,0.0,1759219307394362055
1.2379801150088335e-06,0.0,1759219307414231345
1.8591562235915263e-06,0.0,1759219307435227011
1.0188007830462985e-06,0.0,1759219307454223431
8.6978978653018e-07,0.0,1759219307473747533
1.1085773888562448e-06,0.0,1759219307495761062
8.14955627346164e-07,0.0,1759219307513695591
9.107616319061763e-07,0.0,1759219307535207920
6.27492368571658e-07,0.0,1759219307553355071
3.33888146303484e-07,0.0,1759219307574034788
-2.7448720595008816e-05,0.0,1759219307594951347
1.355705670760158e-07,0.0,1759219307614511546
1.971957059953699e-06,0.0,1759219307633941558
-2.8240696252487825e-07,0.0,1759219307655416326
1.94312871714581e-06,0.0,1759219307673154427
-1.0019573220591057e-05,0.0,1759219307695071821
-2.292670151635133e-06,0.0,1759219307713116619
-8.069609108630006e-06,0.0,1759219307736097299
1.0343251769564512e-07,0.0,1759219307753447356
8.520273733468358e-06,0.0,1759219307774222462
1.0890328920569144e-05,0.0,1759219307794654388
8.443694751721497e-06,0.0,1759219307814025763
9.914372668567824e-06,0.0,1759219307835523227
6.470791564205993e-06,0.0,1759219307854203505
5.6472514280270285e-06,0.0,1759219307873490951
6.14807671888481e-06,0.0,1759219307895531015
4.919963872263667e-06,0.0,1759219307913580431
5.0089994320433675e-06,0.0,1759219307935362946
3.874055987522592e-06,0.0,1759219307953758007
2.713854427220063e-06,0.0,1759219307974330484
4.80165545948606e-06,0.0,1759219307994835371
2.120421375920692e-06,0.0,1759219308014380462
4.181231459845916e-06,0.0,1759219308034471179
1.5187348718667501e-06,0.0,1759219308054632449
1.0738926376108826e-06,0.0,1759219308073128403
2.0300813966991437e-06,0.0,1759219308095307833
9.022183724996173e-07,0.0,1759219308113137122
1.4046303795366994e-06,0.0,1759219308135087682
4.776775643977077e-07,0.0,1759219308153282980
1.053440441201634e-07,0.0,1759219308174032013
1.2746985218247196e-06,0.0,1759219308194620443
1.470387724484877e-07,0.0,1759219308214298279
1.8708254825152747e-05,0.0,1759219308234622859
5.046811242021962e-07,0.0,1759219308254194713
-1.5943930503548318e-06,0.0,1759219308273112818
7.686094370206552e-06,0.0,1759219308295109805
-6.851175959059627e-07,0.0,1759219308313178509
4.457709494284102e-06,0.0,1759219308335427943
-2.8091845742445065e-06,0.0,1759219308353335729
-3.987894098176903e-06,0.0,1759219308373408743
4.741361938848332e-06,0.0,1759219308395120033
-5.127006934204858e-07,0.0,1759219308413331913
3.8989291075135085e-06,0.0,1759219308435853189
-1.6914879950826192e-06,0.0,1759219308453395630
-7.555259397479586e-06,0.0,1759219308474043097
1.1751683683105778e-05,0.0,1759219308494401200
-6.325177140184202e-06,0.0,1759219308514327520
1.1557492172030698e-05,0.0,1759219308534910567
-7.927355817415707e-06,0.0,1759219308554084892
-8.477437616060916e-06,0.0,1759219308573556880
-9.25938573234273e-06,0.0,1759219308595285987
-8.482331599314943e-06,0.0,1759219308613243811
-7.793781814720844e-06,0.0,1759219308635229255
-7.031321900304322e-06,0.0,1759219308653686243
-6.348632235823059e-06,0.0,1759219308674445633
-5.699984982025029e-06,0.0,1759219308694648059
-5.145540152987383e-06,0.0,1759219308714140413
-4.614876924757232e-06,0.0,1759219308735464192
-4.170759567987123e-06,0.0,1759219308754546189
-3.7549670242558987e-06,0.0,1759219308773818955
-3.368850332592111e-06,0.0,1759219308795207206
-3.0376221203825863e-06,0.0,1759219308813099887
6.639027283739492e-06,0.0,1759219308835121584
1.6993994461477133e-06,0.0,1759219308853524947
-3.717104461713191e-06,0.0,1759219308874018491
1.3915754952903552e-05,0.0,1759219308895087845
-3.710044692453011e-06,0.0,1759219308914555491
1.3336575434986488e-05,0.0,1759219308934845672
-5.441920774240812e-06,0.0,1759219308954071046
-6.194677589879449e-06,0.0,1759219308973125701
-1.2979970934987933e-05,0.0,1759219308995652908
-7.239813883646399e-06,0.0,1759219309013126895
-1.0654096473395658e-05,0.0,1759219309035572733
-4.6944906870810275e-06,0.0,1759219309053130081
-2.3226116306164736e-06,0.0,1759219309074387387
-1.2519662423959598e-05,0.0,1759219309094193169
-1.9373900140613504e-06,0.0,1759219309114037087
-1.1104275091828434e-05,0.0,1759219309134702953
-9.820083046627556e-08,0.0,1759219309154182485
1.1298771484719186e-06,0.0,1759219309173166867
1.0533414932052105e-05,0.0,1759219309195489408
2.7534884588789316e-06,0.0,1759219309213469451
7.098689678536607e-06,0.0,1759219309235784934
6.535264843480616e-08,0.0,1759219309253197083
-2.3481002804327053e-06,0.0,1759219309274679852
7.354413317855389e-06,0.0,1759219309294498290
-1.1190814700303254e-06,0.0,1759219309314150434
7.074575100224272e-06,0.0,1759219309334254099
-1.7041814199484933e-06,0.0,1759219309354073664
-3.3381458097509315e-06,0.0,1759219309373110338
-8.489028159692552e-06,0.0,1759219309395195484
-4.313509952255164e-06,0.0,1759219309413426447
-7.273831181955375e-06,0.0,1759219309435275537
-2.732350309923292e-06,0.0,1759219309453406905
-1.6433352404237045e-06,0.0,1759219309473690160
-6.637908369905662e-06,0.0,1759219309495062994
-3.149294502628678e-06,0.0,1759219309513498338
-5.501523493191496e-06,0.0,1759219309535691814
-1.9679058872837523e-06,0.0,1759219309554075194
1.986574227912041e-06,0.0,1759219309574052111
1.9710256145206726e-05,0.0,1759219309594632370
2.573062089555735e-06,0.0,1759219309614254601
1.865736334813972e-05,0.0,1759219309634854133
-2.0316053077382536e-07,0.0,1759219309654344245
-1.4726897748605593e-06,0.0,1759219309673206699
6.026287279242522e-06,0.0,1759219309695098253
1.2391791017565718e-06,0.0,1759219309713391558
4.899690819002903e-06,0.0,1759219309736305905
-1.5397752313951185e-07,0.0,1759219309754132862
-5.356766415583566e-06,0.0,1759219309774887334
1.134728659198473e-05,0.0,1759219309795663515
-5.355484364648479e-06,0.0,1759219309814646452
1.0777738327565424e-05,0.0,1759219309834670262
-6.458051866934462e-06,0.0,1759219309853910341
-6.974687931201922e-06,0.0,1759219309873762717
7.899719197793596e-07,0.0,1759219309895042971
-3.0719462895971047e-06,0.0,1759219309914116469
1.0536650122069224e-06,0.0,1759219309935130102
-3.199873197025185e-06,0.0,1759219309953204431
-7.719729279577338e-06,0.0,1759219309974491231
8.711651943925742e-06,0.0,1759219309994412138
-5.976336713161419e-06,0.0,1759219310014574668
9.528113319371308e-06,0.0,1759219310034293830
-6.04854706932489e-06,0.0,1759219310054082022
-7.1989330574995535e-06,0.0,1759219310074026075
6.133176855388055e-07,0.0,1759219310095398969
-5.418582032216625e-06,0.0,1759219310113218080
-1.1766413325536808e-06,0.0,1759219310135642862
-6.288688094330067e-06,0.0,1759219310153283311
-7.732048894474054e-06,0.0,1759219310174066995
5.885831024811187e-06,0.0,1759219310194602646
-6.619627007566691e-06,0.0,1759219310214236984
6.430692006547079e-06,0.0,1759219310234341447
-6.6468467590957684e-06,0.0,1759219310254202986
-7.508037059754944e-06,0.0,1759219310273759113
-2.0399548954254845e-07,0.0,1759219310295459794
-5.678300521782741e-06,0.0,1759219310313525462
-1.5753857087047408e-06,0.0,1759219310335562019
-6.284846751948583e-06,0.0,1759219310353172040
-7.5922052315853895e-06,0.0,1759219310374044608
1.9121858282813377e-07,0.0,1759219310394851964
-5.836599418104603e-06,0.0,1759219310414560513
1.060614599837396e-06,0.0,1759219310434519862
-5.30974713652842e-06,0.0,1759219310454363245
-6.202348909109995e-06,0.0,1759219310473095941
6.703195398456185e-06,0.0,1759219310494678699
-5.912913946713799e-06,0.0,1759219310514423558
6.968478780858758e-06,0.0,1759219310534616956
-6.183725342300568e-06,0.0,1759219310554412113
-6.511621734325152e-06,0.0,1759219310573635473
-4.479773210318806e-07,0.0,1759219310595756904
-3.6506245677771253e-06,0.0,1759219310613184789
-3.7205377452956927e-07,0.0,1759219310635428612
-3.6829563693573003e-06,0.0,1759219310653216687
-7.244472451545299e-06,0.0,1759219310674128844
5.48794883606024e-06,0.0,1759219310694641324
-5.9152771719317034e-06,0.0,1759219310714952310
6.197068792223176e-06,0.0,1759219310735121364
-6.293306877451127e-06,0.0,1759219310754949593
-6.56290488415156e-06,0.0,1759219310773702146
-8.152168653451023e-07,0.0,1759219310795534202
-3.7564999694980945e-06,0.0,1759219310813191171
-6.384931889900326e-07,0.0,1759219310835248426
-3.683724013006789e-06,0.0,1759219310853296975
-6.909013590625522e-06,0.0,1759219310874446235
5.44684100828153e-06,0.0,1759219310894352608
-5.552677372979703e-06,0.0,1759219310914044014
5.49185393284661e-06,0.0,1759219310934792000
-6.33387988915608e-06,0.0,1759219310953994058
-6.521436874140903e-06,0.0,1759219310973419856
-1.6214192573132805e-05,0.0,1759219310995175892
-1.047638467962584e-05,0.0,1759219311013526096
-1.3870543638563302e-05,0.0,1759219311035125815
-7.851715585661462e-06,0.0,1759219311053094727
-1.614989443495818e-06,0.0,1759219311074113219
-1.8164079646677533e-05,0.0,1759219311094854935
-1.6151641095209053e-07,0.0,1759219311113953781
-1.5903530684128904e-05,0.0,1759219311134734308
2.5169111112474147e-06,0.0,1759219311153980125
4.296829403072312e-06,0.0,1759219311173155647
1.0939057468959172e-05,0.0,1759219311195139823
7.176041535029194e-06,0.0,1759219311213193397
8.39243918132741e-06,0.0,1759219311235097383
3.322089247945828e-06,0.0,1759219311253445877
1.2940411574711847e-06,0.0,1759219311274365293
1.2837284368582216e-05,0.0,1759219311294910405
5.542343407839165e-07,0.0,1759219311314098379
5.974579686220322e-06,0.0,1759219311334250099
-2.2787054124739433e-07,0.0,1759219311354384727
-1.4612434914848802e-06,0.0,1759219311373681345
2.9392535313188995e-06,0.0,1759219311395373980
-9.839139630086109e-07,0.0,1759219311413479031
2.2254074572601964e-06,0.0,1759219311435186340
-1.71995702881632e-06,0.0,1759219311453130817
-2.3355023310186678e-06,0.0,1759219311473533483
2.617769628391734e-06,0.0,1759219311495754639
-4.4500555807777416e-07,0.0,1759219311513625334
2.2069958674936603e-06,0.0,1759219311535483047
-3.4073939919829344e-06,0.0,1759219311554100518
-4.216217924767899e-06,0.0,1759219311573218477
6.2002568984287925e-06,0.0,1759219311594905305
-4.235872670164512e-06,0.0,1759219311614603703
-4.988529079827005e-06,0.0,1759219311635081453
-5.07486209903639e-06,0.0,1759219311654413366
-4.611347102880193e-06,0.0,1759219311673435119
-1.3932917454797715e-05,0.0,1759219311695021217
-8.182837494556726e-06,0.0,1759219311713127317
-1.16486030366907e-05,0.0,1759219311736093568
-5.644191246683829e-06,0.0,1759219311753733413
6.421525063789056e-07,0.0,1759219311774808434
-1.6889637296409323e-05,0.0,1759219311794743675
1.2173330992384475e-06,0.0,1759219311814051409
-1.5041033648535024e-05,0.0,1759219311834961597
3.466402924079381e-06,0.0,1759219311854581320
4.447260927975758e-06,0.0,1759219311873229705
-3.2478878513604946e-06,0.0,1759219311895590084
1.3506945857981255e-06,0.0,1759219311913491422
-2.7353533716686063e-06,0.0,1759219311935581885
1.984025915099446e-06,0.0,1759219311953723339
7.214604318031973e-06,0.0,1759219311974128946
-1.0011210299463593e-05,0.0,1759219311994361080
6.198368719145223e-06,0.0,1759219312013994318
-9.597645748491812e-06,0.0,1759219312034687593
7.048786760171302e-06,0.0,1759219312054612909
8.362608323852946e-06,0.0,1759219312073125644
2.3432039121346372e-07,0.0,1759219312095526555
4.0895355043424686e-06,0.0,1759219312113132204
1.5671548086164595e-06,0.0,1759219312135800016
5.025072825870126e-06,0.0,1759219312153178433
8.611106220701247e-06,0.0,1759219312174276441
3.3034948323835726e-06,0.0,1759219312194418609
7.493420287161655e-06,0.0,1759219312214044820
2.4035251111601164e-06,0.0,1759219312234306448
6.644382025322231e-06,0.0,1759219312253992466
6.521702582846437e-06,0.0,1759219312273537886
3.8098209961163098e-06,0.0,1759219312295689008
5.234322859189905e-06,0.0,1759219312313455462
1.0942389580320462e-05,0.0,1759219312335611645
5.798319116272884e-06,0.0,1759219312353433554
3.5762644697885433e-06,0.0,1759219312374074659
1.0347161895625769e-05,0.0,1759219312394520960
3.4165952774119707e-06,0.0,1759219312414288302
1.4114049417755733e-05,0.0,1759219312435172081
7.343846598455172e-07,0.0,1759219312454198270
-7.748810510439882e-07,0.0,1759219312473266088
5.187833367625024e-06,0.0,1759219312495196168
-3.2584963146233817e-07,0.0,1759219312513103826
2.9637663474592997e-06,0.0,1759219312535494780
-1.7097944117243469e-06,0.0,1759219312553646202
-2.4784863534314905e-06,0.0,1759219312573892760
-6.42460043297327e-06,0.0,1759219312595132513
-4.57140185059227e-06,0.0,1759219312613222841
-5.503452688300531e-06,0.0,1759219312636040527
-3.4897361239285947e-06,0.0,1759219312653513721
-1.4529646571388337e-06,0.0,1759219312674249593
-6.6023562509424605e-06,0.0,1759219312694540461
-1.038850306820571e-06,0.0,1759219312714064142
-5.6270542178228046e-06,0.0,1759219312735510216
3.284201734524142e-07,0.0,1759219312754059836
6.760221169305228e-07,0.0,1759219312773464744
7.743113609445816e-06,0.0,1759219312795556762
3.92243259661646e-06,0.0,1759219312813745613
6.668974096564498e-06,0.0,1759219312835896021
2.592996609656806e-06,0.0,1759219312853713699
-1.7173054149268925e-06,0.0,1759219312874133888
1.0742950877220334e-05,0.0,1759219312894666415
-1.9403900594851556e-06,0.0,1759219312914150263
9.361354832102832e-06,0.0,1759219312935409515
-4.161513731753823e-06,0.0,1759219312954079745
-4.6448389433427065e-06,0.0,1759219312973437053
-8.428315413998096e-06,0.0,1759219312995012682
-6.2816696192220145e-06,0.0,1759219313013444831
-7.176039920479543e-06,0.0,1759219313035656240
-4.8733710583338754e-06,0.0,1759219313053229566
-2.6460459480526236e-06,0.0,1759219313075083326
-8.270082807415705e-06,0.0,1759219313094768481
-2.070879213617547e-06,0.0,1759219313114072556
-2.4911426452824103e-05,0.0,1759219313135147347
-8.64024426743069e-07,0.0,1759219313154113304
1.803321279137163e-06,0.0,1759219313173532694
-5.077859870636415e-08,0.0,1759219313195166299
2.1967617220643425e-06,0.0,1759219313213447895
7.120855699341285e-07,0.0,1759219313235380594
2.418349401934345e-06,0.0,1759219313253597760
2.913718594191059e-06,0.0,1759219313274374419
-1.0113344797049635e-05,0.0,1759219313294688280
1.0406312744944093e-06,0.0,1759219313314037496
-1.7952673460229702e-05,0.0,1759219313334905518
3.585886027084872e-06,0.0,1759219313354469471
5.695555247311935e-06,0.0,1759219313373453463
3.9412964051309134e-06,0.0,1759219313395061918
5.378273863337182e-06,0.0,1759219313413296102
3.8020537488561537e-06,0.0,1759219313435028135
4.871660031340466e-06,0.0,1759219313453514525
4.978443872607578e-06,0.0,1759219313474644321
2.2205440753542987e-06,0.0,1759219313494517851
3.867907713397233e-06,0.0,1759219313514069886
1.5658155608621834e-06,0.0,1759219313534219133
3.3439981585298767e-06,0.0,1759219313553964081
3.4362431900580023e-06,0.0,1759219313573305230
-6.380115590406662e-07,0.0,1759219313595123894
3.1949412156556567e-06,0.0,1759219313614291135
1.7535718892679453e-06,0.0,1759219313635718550
2.893969396106444e-06,0.0,1759219313653321169
2.8837263310512785e-06,0.0,1759219313673417529
9.445176172721604e-07,0.0,1759219313695638568
1.806188329246826e-06,0.0,1759219313713826467
7.406003527515322e-07,0.0,1759219313736174993
1.6967408594282928e-06,0.0,1759219313753948740
2.743671933201012e-06,0.0,1759219313774463131
-1.2301313124855235e-06,0.0,1759219313794911774
2.394640726769605e-06,0.0,1759219313814185029
-1.2283602901472602e-06,0.0,1759219313835144410
2.593862677671032e-06,0.0,1759219313854248565
2.60815068341856e-06,0.0,1759219313873361744
7.682788268866658e-07,0.0,1759219313895011932
1.5837613298158911e-06,0.0,1759219313913218245
5.959565922870876e-07,0.0,1759219313935297238
1.4636830127498112e-06,0.0,1759219313953704236
2.464127562329863e-06,0.0,1759219313973979298
-1.25015964287804e-05,0.0,1759219313994141008
1.3859270059909423e-06,0.0,1759219314014030754
-1.2095330037192867e-05,0.0,1759219314034580401
2.8091087260704304e-06,0.0,1759219314054315251
3.5838012495242745e-06,0.0,1759219314073366439
-2.7670305713819775e-06,0.0,1759219314095290106
9.010602530768105e-07,0.0,1759219314113666976
3.3268701379265006e-06,0.0,1759219314135088068
3.9762659937282e-06,0.0,1759219314153655686
4.795547853105476e-06,0.0,1759219314174305926
-9.687806759747298e-06,0.0,1759219314194609964
2.9512993915784193e-06,0.0,1759219314214893227
-1.0736526423464543e-05,0.0,1759219314234253166
3.0503119640541864e-06,0.0,1759219314254441689
4.371381134590563e-06,0.0,1759219314273420699
-2.0175296430904705e-06,0.0,1759219314295990904
3.540643415419262e-06,0.0,1759219314313513372
-1.7302605965221585e-07,0.0,1759219314335406954
4.395352198313983e-06,0.0,1759219314353118641
5.71361356367364e-06,0.0,1759219314374991275
-1.8844572455380575e-06,0.0,1759219314394417750
3.830137918218124e-06,0.0,1759219314414614441
-7.352420122005966e-06,0.0,1759219314434976489
4.503706979073704e-06,0.0,1759219314454381487
5.402160598219225e-06,0.0,1759219314473861944
-7.798836162320758e-07,0.0,1759219314495594141
4.059637710072238e-06,0.0,1759219314513412510
5.639077741142718e-07,0.0,1759219314535929751
4.741423564614697e-06,0.0,1759219314553818640
5.1728059648319e-06,0.0,1759219314573895287
-5.343195302642959e-07,0.0,1759219314595433196
5.0947808320632e-06,0.0,1759219314614134449
-1.0895980320913827e-05,0.0,1759219314634640997
3.706727731777952e-06,0.0,1759219314653962446
6.223758244595171e-06,0.0,1759219314673583341
-2.213530680200808e-05,0.0,1759219314694929141
7.217693704674747e-06,0.0,1759219314714216506
-2.051121449111767e-05,0.0,1759219314734913878
9.998109421904675e-06,0.0,1759219314754185654
1.1111251811111987e-05,0.0,1759219314773514348
7.14367585460299e-06,0.0,1759219314795100023
9.057588890598694e-06,0.0,1759219314813665427
5.866952419403131e-06,0.0,1759219314835104825
7.912409024279861e-06,0.0,1759219314853645681
1.0334403384888636e-05,0.0,1759219314874386426
-6.979975563834365e-07,0.0,1759219314894445885
8.326537699391152e-06,0.0,1759219314914450200
-1.5245822483923437e-06,0.0,1759219314935409027
8.628116250470982e-06,0.0,1759219314954174004
8.491362841447101e-06,0.0,1759219314973238280
3.491301791556576e-06,0.0,1759219314995125745
5.4349593706989e-06,0.0,1759219315013966650
2.6051551929802536e-06,0.0,1759219315035393205
4.828203378543643e-06,0.0,1759219315053637168
7.331859902069892e-06,0.0,1759219315074460162
-2.872912950145676e-06,0.0,1759219315094249847
5.776596539910879e-06,0.0,1759219315114278249
-3.5734233495013743e-06,0.0,1759219315134432169
5.780780797307515e-06,0.0,1759219315153960582
6.3008101155176805e-06,0.0,1759219315173163416
1.4889595222013389e-06,0.0,1759219315195113734
3.443376682393859e-06,0.0,1759219315213315671
1.8750106775426628e-06,0.0,1759219315235171741
3.617608219607792e-06,0.0,1759219315253519221
5.567977239562063e-06,0.0,1759219315274437230
-3.549771850582072e-06,0.0,1759219315294856308
4.8246904913312365e-06,0.0,1759219315314047229
-3.817291893383816e-06,0.0,1759219315334316488
4.822914226439743e-06,0.0,1759219315354177782
5.366639016581481e-06,0.0,1759219315373367732
9.190540616482575e-07,0.0,1759219315395158053
4.112971238130106e-06,0.0,1759219315413409282
5.993807797208222e-06,0.0,1759219315436148427
4.895423339132628e-06,0.0,1759219315453389783
4.209089646043962e-06,0.0,1759219315473976095
5.173085093619176e-06,0.0,1759219315494847709
3.505846664870451e-06,0.0,1759219315514338225
5.3077669190445025e-06,0.0,1759219315535242353
2.4335403049746674e-06,0.0,1759219315554093054
1.9098238883146865e-06,0.0,1759219315573227004
-2.5892823688535393e-06,0.0,1759219315595081328
7.551771413669613e-07,0.0,1759219315613176042
-1.4704681106714257e-06,0.0,1759219315635677878
1.531291667942544e-06,0.0,1759219315653590141
1.994732128822038e-06,0.0,1759219315673592763
-1.6769837322206812e-06,0.0,1759219315695496698
5.322386322003234e-07,0.0,1759219315713499191
-4.062288258963297e-06,0.0,1759219315736557152
1.6918399178971624e-06,0.0,1759219315754305252
4.486764417430536e-06,0.0,1759219315774283197
8.121189305558734e-06,0.0,1759219315794973371
4.091717329102648e-06,0.0,1759219315814135346
6.541203951511053e-06,0.0,1759219315835243761
2.6845271275120582e-06,0.0,1759219315854131770
2.1844038559697467e-06,0.0,1759219315873481681
3.239026003328582e-06,0.0,1759219315895476455
2.194365057674093e-06,0.0,1759219315914128868
2.6938292484027004e-06,0.0,1759219315935332159
1.6498834767265847e-06,0.0,1759219315953439740
5.506407424975934e-07,0.0,1759219315973990804
-7.826842820676422e-06,0.0,1759219315994194195
-2.6038935931720634e-07,0.0,1759219316014447326
-7.921987894065923e-06,0.0,1759219316034463372
2.8793839392820334e-07,0.0,1759219316054710108
8.534903816480405e-07,0.0,1759219316073504615
-2.6261647554532584e-06,0.0,1759219316095176334
-4.168622646328455e-07,0.0,1759219316113152555
-2.117842651167111e-06,0.0,1759219316135845840
2.0092217804405846e-07,0.0,1759219316153340910
2.589361978710595e-06,0.0,1759219316174129801
-5.143493855771416e-06,0.0,1759219316194651241
2.2439935360253037e-06,0.0,1759219316214155836
-2.367511303173973e-05,0.0,1759219316234253000
1.3409400662193777e-06,0.0,1759219316254283819
4.098107900135258e-06,0.0,1759219316273106363
-7.975805596767298e-06,0.0,1759219316295090272
2.5333925872609917e-06,0.0,1759219316313430479
-4.026847860939721e-06,0.0,1759219316335435171
1.576065302744083e-06,0.0,1759219316353171015
7.820945362156328e-06,0.0,1759219316373987903
1.8605603929107128e-06,0.0,1759219316394415263
7.298644742852659e-06,0.0,1759219316414210287
8.885890467324943e-07,0.0,1759219316434577877
6.70063428203523e-06,0.0,1759219316454020221
6.7396908937290175e-06,0.0,1759219316473507648
3.2839557816655238e-06,0.0,1759219316495312552
5.307983158933018e-06,0.0,1759219316513324736
3.2711977313394426e-06,0.0,1759219316535294669
5.005654954181676e-06,0.0,1759219316553104993
4.9356937129904925e-06,0.0,1759219316573668117
1.9524360733273516e-06,0.0,1759219316595308259
4.361450578099928e-06,0.0,1759219316614675116
-1.0108955061899924e-06,0.0,1759219316634756303
4.009902545837666e-06,0.0,1759219316654600623
4.242366166367158e-06,0.0,1759219316673290182
-2.945359983308596e-06,0.0,1759219316694268727
3.7100585476909865e-06,0.0,1759219316713962946
1.8552945152597833e-06,0.0,1759219316735130435
3.559285618444651e-06,0.0,1759219316753184957
3.6114320499595955e-06,0.0,1759219316773240764
9.952141422201173e-07,0.0,1759219316795635432
2.2555836417899128e-06,0.0,1759219316813465237
7.653884168824849e-07,0.0,1759219316835123442
2.0675360437609974e-06,0.0,1759219316853524413
3.5565195228026476e-06,0.0,1759219316874071084
-1.8451894151876728e-06,0.0,1759219316894894169
3.2243931637333186e-06,0.0,1759219316914075415
-1.8470599552966379e-06,0.0,1759219316934981434
3.3855919902296224e-06,0.0,1759219316954436782
3.4349484710503782e-06,0.0,1759219316973133285
9.590332102759333e-07,0.0,1759219316995507888
2.092935030469849e-06,0.0,1759219317014140238
7.059412820012976e-07,0.0,1759219317035652037
1.9594960141147905e-06,0.0,1759219317053581339
3.3545005302976853e-06,0.0,1759219317074037604
-1.857941119218516e-06,0.0,1759219317094269995
2.781320750977442e-06,0.0,1759219317113978308
-2.020991578428177e-06,0.0,1759219317134479579
2.8653831290370054e-06,0.0,1759219317154083921
2.9219851396858804e-06,0.0,1759219317173882572
9.945297081501462e-06,0.0,1759219317195586014
5.849333790350811e-06,0.0,1759219317213630831
8.518699854350052e-06,0.0,1759219317235205271
4.2649808509256685e-06,0.0,1759219317253245108
-1.9869409200138708e-07,0.0,1759219317274080181
1.2465322241688689e-05,0.0,1759219317294274434
-3.7009393148960894e-07,0.0,1759219317314010253
1.154159871072487e-05,0.0,1759219317334199037
-1.6366311989710128e-06,0.0,1759219317354054709
-2.9462228812522576e-06,0.0,1759219317373465470
2.9607554350623403e-06,0.0,1759219317395699674
-2.278349561163667e-06,0.0,1759219317413367814
8.46481982491362e-06,0.0,1759219317435321504
-2.235709272282474e-06,0.0,1759219317453154512
-5.953368242365832e-06,0.0,1759219317474048525
2.07920826688608e-05,0.0,1759219317494831986
-6.104938617756653e-06,0.0,1759219317514084936
1.9588813468335166e-05,0.0,1759219317534492649
-7.385395042546795e-06,0.0,1759219317554744273
-9.898399200005416e-06,0.0,1759219317573444015
-4.811272113167783e-06,0.0,1759219317595533387
-8.73471305354353e-06,0.0,1759219317613339803
-5.281860699954217e-06,0.0,1759219317635667007
-8.436941603494494e-06,0.0,1759219317653396952
-8.370352441235802e-06,0.0,1759219317673704615
2.1443278662744912e-07,0.0,1759219317695893676
-8.912412452633844e-06,0.0,1759219317713963673
-3.409968952084382e-06,0.0,1759219317734868123
-7.935371160847338e-06,0.0,1759219317754468213
-8.232901306909849e-06,0.0,1759219317773206913
-1.5495666406103867e-05,0.0,1759219317794873895
-7.047483868679722e-06,0.0,1759219317814546488
-8.694364376533959e-06,0.0,1759219317835104790
-5.283163373215774e-06,0.0,1759219317853145577
-4.209223026578374e-06,0.0,1759219317873312607
-7.128331829565437e-06,0.0,1759219317895036007
-4.580268445958491e-06,0.0,1759219317913749826
3.490283430543467e-06,0.0,1759219317935262620
9.234115632966649e-07,0.0,1759219317953771650
-1.9415635591455506e-06,0.0,1759219317974026402
8.079356202943486e-06,0.0,1759219317994820473
-1.9022115134906954e-06,0.0,1759219318014498507
7.562895036440707e-06,0.0,1759219318035226891
-3.1012712654209835e-06,0.0,1759219318054376549
-3.5322259639783765e-06,0.0,1759219318073412879
1.0241277902820326e-06,0.0,1759219318095295079
-1.5395261216248071e-06,0.0,1759219318113127998
8.479344449909908e-07,0.0,1759219318135373891
-1.823902299351947e-06,0.0,1759219318153147697
-4.611955697922664e-06,0.0,1759219318174343950
-1.2826281534437174e-05,0.0,1759219318194815484
-4.4458025682868586e-06,0.0,1759219318214263031
-1.1964835459301227e-05,0.0,1759219318234350495
-2.8388055550240064e-06,0.0,1759219318254053505
-1.5816685098057348e-06,0.0,1759219318273290425
-5.201679982254877e-06,0.0,1759219318295039866
-2.778820244585086e-06,0.0,1759219318313117649
-1.1086479438139517e-05,0.0,1759219318335433365
-4.602509218469271e-06,0.0,1759219318353127223
2.0816539773606143e-06,0.0,1759219318374088795
-5.252459526767494e-06,0.0,1759219318394310269
2.3199183553932666e-06,0.0,1759219318414540648
-5.081596603665785e-06,0.0,1759219318434313293
2.6404133426600645e-06,0.0,1759219318454024125
3.2600790039754623e-06,0.0,1759219318473334113
-4.1150368133883087e-07,0.0,1759219318495417689
2.493069140759527e-06,0.0,1759219318513500397
4.015466433701663e-07,0.0,1759219318535397950
2.883436811836512e-06,0.0,1759219318553193861
3.6017701881226447e-06,0.0,1759219318574010500
-5.283068926105482e-07,0.0,1759219318594120191
2.604179212038349e-06,0.0,1759219318614116929
-8.590477887399852e-07,0.0,1759219318634591227
2.464505296886329e-06,0.0,1759219318654479692
2.9470879074564876e-06,0.0,1759219318673566086
-3.862000945933345e-06,0.0,1759219318694641156
2.72539121454705e-06,0.0,1759219318714412910
6.208287408540063e-07,0.0,1759219318736478505
2.802649631865663e-06,0.0,1759219318754011480
3.001276141273412e-06,0.0,1759219318773761942
-1.6334840102993786e-07,0.0,1759219318795467891
1.506978583373479e-06,0.0,1759219318813239424
-2.482975002829132e-06,0.0,1759219318835596109
3.6436495274576963e-06,0.0,1759219318854465137
3.987125487689537e-06,0.0,1759219318873481724
-3.949156980579406e-06,0.0,1759219318895006068
3.924876008973717e-06,0.0,1759219318914120705
-2.5708770787334898e-06,0.0,1759219318934267696
4.1327784555278006e-06,0.0,1759219318953949496
4.191863174351546e-06,0.0,1759219318973818560
1.157595192697989e-06,0.0,1759219318995836894
2.6119120030876967e-06,0.0,1759219319013379881
9.201903168310877e-07,0.0,1759219319035204115
2.4161549788180803e-06,0.0,1759219319053377119
4.0571976454497225e-06,0.0,1759219319074474025
-2.1271777939228457e-06,0.0,1759219319095328288
3.687093164606673e-06,0.0,1759219319114373405
-2.257198371983503e-06,0.0,1759219319134630011
3.695206169968726e-06,0.0,1759219319154163472
3.7612989104208097e-06,0.0,1759219319173220113
8.958282372061604e-07,0.0,1759219319195037205
2.2071561994442906e-06,0.0,1759219319213547406
6.506003174217741e-07,0.0,1759219319235367840
2.0397834046786753e-06,0.0,1759219319254206715
3.6464976910320678e-06,0.0,1759219319274537150
-2.3316170748547216e-06,0.0,1759219319294566334
2.992922500669658e-06,0.0,1759219319314210050
-2.4508481463535425e-06,0.0,1759219319334868645
3.097531336520105e-06,0.0,1759219319354460365
3.4465310621301036e-06,0.0,1759219319373554374
5.730712543698842e-07,0.0,1759219319395142848
2.644449737798113e-06,0.0,1759219319413158334
1.0804323315681011e-06,0.0,1759219319436183312
2.114607256910407e-06,0.0,1759219319453507776
3.295138972690039e-06,0.0,1759219319474073965
-1.7573262232306403e-06,0.0,1759219319494336653
2.628896439264816e-06,0.0,1759219319514518332
-2.4799540990753796e-06,0.0,1759219319534794165
2.694590828918556e-06,0.0,1759219319554340575
3.036528660638525e-06,0.0,1759219319573207397
4.0058427411873067e-07,0.0,1759219319595166223
2.330848994493821e-06,0.0,1759219319613337101
8.213793978308576e-07,0.0,1759219319635223376
2.437739915743942e-06,0.0,1759219319653466139
2.886416310366948e-06,0.0,1759219319674414481
-1.4252939065189011e-08,0.0,1759219319694553474
2.1525872688001564e-06,0.0,1759219319714221396
-2.1076257831610527e-06,0.0,1759219319734879496
2.426926307068617e-06,0.0,1759219319753938198
2.6990736941072795e-06,0.0,1759219319773298544
1.0276479831992822e-05,0.0,1759219319794436721
2.532295333771964e-06,0.0,1759219319814381478
4.024478075585119e-06,0.0,1759219319835487933
1.4846633065511212e-06,0.0,1759219319853216796
8.880474831193768e-07,0.0,1759219319873752969
3.4186928211466537e-06,0.0,1759219319895515542
1.554206981524556e-06,0.0,1759219319913498197
2.8261306399866644e-06,0.0,1759219319935177786
9.793671434022414e-07,0.0,1759219319953599494
-9.900886992404348e-07,0.0,1759219319974648097
-6.377448668919318e-06,0.0,1759219319994291904
-1.520139646523153e-06,0.0,1759219320014316675
-6.094355672059625e-06,0.0,1759219320034998971
-5.38354969702836e-07,0.0,1759219320054235647
-1.1134681081812358e-07,0.0,1759219320073095783
-2.2334324874809448e-06,0.0,1759219320095054821
-8.174696190219712e-07,0.0,1759219320113622639
-1.8907758392043144e-06,0.0,1759219320135431881
-4.298934200088703e-07,0.0,1759219320153691305
1.1804374693108687e-06,0.0,1759219320173955927
-3.5164935886817524e-06,0.0,1759219320195084820
1.2438330135401627e-06,0.0,1759219320214521654
-3.3015098976880638e-06,0.0,1759219320235076009
1.7865748183510624e-06,0.0,1759219320254011810
1.9539581810661525e-06,0.0,1759219320273155364
-1.8978430866184222e-07,0.0,1759219320295551280
9.981036529566902e-07,0.0,1759219320313217897
-1.5613663300774028e-07,0.0,1759219320335545071
1.0755970252145679e-06,0.0,1759219320353423277
2.417591433993745e-06,0.0,1759219320373980142
-2.272148703440765e-06,0.0,1759219320394232894
1.8960633016305365e-06,0.0,1759219320414699692
-2.526726305615421e-06,0.0,1759219320434715904
2.081083415582327e-06,0.0,1759219320454010250
2.3956276786616863e-06,0.0,1759219320473375805
1.7167306285052218e-07,0.0,1759219320495426420
1.1822072059906805e-06,0.0,1759219320513312414
4.79007250945293e-07,0.0,1759219320535427176
1.3786044711469823e-06,0.0,1759219320553337242
2.342182090998526e-06,0.0,1759219320574398709
-2.034454875810011e-06,0.0,1759219320594673059
1.9707377020934656e-06,0.0,1759219320614142220
-2.0174042625113617e-05,0.0,1759219320634664854
1.5554456776236762e-06,0.0,1759219320654534906
3.846507775447901e-06,0.0,1759219320673497479
-6.571845794337002e-06,0.0,1759219320695706748
2.853118186529251e-06,0.0,1759219320713386454
-2.9750921868501152e-06,0.0,1759219320735116373
4.610401935003765e-06,0.0,1759219320753472268
7.157044709117537e-06,0.0,1759219320774337307
5.3931890076852276e-06,0.0,1759219320794490102
6.459450584326964e-06,0.0,1759219320814374718
4.492714310801987e-06,0.0,1759219320834944057
5.510337752849511e-06,0.0,1759219320854155429
5.2810948569519576e-06,0.0,1759219320873177139
2.100223068281381e-06,0.0,1759219320895419722
4.717849194226911e-06,0.0,1759219320914046702
3.4176302428784845e-06,0.0,1759219320935116358
4.014969509047489e-06,0.0,1759219320953222223
3.8148057075632514e-06,0.0,1759219320973499922
2.219747268493866e-06,0.0,1759219320995532946
2.7139502518428374e-06,0.0,1759219321013133043
1.785508617409022e-06,0.0,1759219321035110393
2.3393513022643532e-06,0.0,1759219321053387847
2.984230703579846e-06,0.0,1759219321074168126
-1.1776508850678103e-08,0.0,1759219321094675411
2.5321725882957637e-06,0.0,1759219321114107666
-2.4132322410975015e-07,0.0,1759219321134684519
2.4131545202090704e-06,0.0,1759219321154345334
2.373667099350685e-06,0.0,1759219321173153222
6.457824431805748e-06,0.0,1759219321196464177
3.6862570347798454e-06,0.0,1759219321213422394
5.38181747952848e-06,0.0,1759219321235107760
2.717545031232226e-06,0.0,1759219321253630612
-1.4506331572449365e-07,0.0,1759219321274380527
7.939191390635827e-06,0.0,1759219321294674759
-1.576474450128309e-07,0.0,1759219321314611250
2.553956238794918e-05,0.0,1759219321335125666
-1.3102429443598091e-06,0.0,1759219321354192232
-2.952579218778559e-06,0.0,1759219321373535778
-6.6860065042853255e-06,0.0,1759219321395131577
-5.3942382040728966e-06,0.0,1759219321413721551
-5.909084667462411e-06,0.0,1759219321435609644
-4.4235843767173195e-06,0.0,1759219321453475010
-2.9159628642299615e-06,0.0,1759219321474049744
-5.887162345199775e-06,0.0,1759219321494825022
-2.2073433261288065e-06,0.0,1759219321514428158
-5.149436764120604e-06,0.0,1759219321534666777
-1.4899110270514215e-06,0.0,1759219321554863307
-9.405625462017378e-07,0.0,1759219321573917970
-2.4092097158681943e-06,0.0,1759219321595009169
-9.157130890712907e-07,0.0,1759219321613488583
-1.6499575006300225e-06,0.0,1759219321635407881
-3.793232187775041e-07,0.0,1759219321653503803
1.1341736410314255e-07,0.0,1759219321674172399
-1.5512718520547307e-06,0.0,1759219321694733359
-5.141320997296727e-09,0.0,1759219321714520567
-2.62755854156773e-06,0.0,1759219321735173127
3.8681460336683046e-07,0.0,1759219321754621384
6.914808845590002e-07,0.0,1759219321773353859
-7.191610061052512e-07,0.0,1759219321795979122
5.70632314293223e-07,0.0,1759219321813273971
-2.4873771125894014e-07,0.0,1759219321835598733
8.199287635512105e-07,0.0,1759219321853412719
1.153135233142988e-06,0.0,1759219321874363352
-4.928957808815137e-07,0.0,1759219321895079307
9.236055000929074e-07,0.0,1759219321913981735
-4.927452742657423e-07,0.0,1759219321934722507
9.100637935040463e-07,0.0,1759219321954628270
1.1334414972074442e-06,0.0,1759219321973130689
-1.6480671244173868e-06,0.0,1759219321994664759
1.1572830158836938e-06,0.0,1759219322014058556
-1.52643451685898e-06,0.0,1759219322035068617
1.4497476605652329e-06,0.0,1759219322054083322
1.5060451497461753e-06,0.0,1759219322073697902
1.6314071724876783e-07,0.0,1759219322095512431
8.267265979169281e-07,0.0,1759219322113667395
1.00870570582132e-07,0.0,1759219322135421050
7.95466095969899e-07,0.0,1759219322153806641
1.5827822267755612e-06,0.0,1759219322174281442
-1.2363713516768724e-06,0.0,1759219322194505599
1.337733993260663e-06,0.0,1759219322214061900
-1.250099351953766e-06,0.0,1759219322234584505
1.445173137616665e-06,0.0,1759219322254057544
1.4941858326258827e-06,0.0,1759219322273177707
2.4415329439284404e-07,0.0,1759219322295353976
8.489085898699496e-07,0.0,1759219322313715730
1.5639229070059501e-07,0.0,1759219322335128460
8.130250911855342e-07,0.0,1759219322353170150
1.513490166060438e-06,0.0,1759219322374397442
-1.0855966834055638e-06,0.0,1759219322394921091
1.3654474988845317e-06,0.0,1759219322414122560
1.3993154391838435e-06,0.0,1759219322433453236
1.0969133724478615e-06,0.0,1759219322456381102
1.3216636348593734e-06,0.0,1759219322473175567
1.0211785448032254e-07,0.0,1759219322495663971
6.512599699671656e-07,0.0,1759219322514076358
2.5993233615104104e-07,0.0,1759219322535986472
7.691771168806612e-07,0.0,1759219322553663407
1.3096387185002521e-06,0.0,1759219322574754335
1.7286359377157333e-05,0.0,1759219322594250856
2.3383506889936816e-06,0.0,1759219322614245474
1.649855921094997e-05,0.0,1759219322634642967
-1.2221820525680784e-07,0.0,1759219322654001373
-1.8686974502570233e-06,0.0,1759219322673816805
5.215258834821383e-06,0.0,1759219322695733114
-1.413615436644509e-06,0.0,1759219322713114723
2.32165240412311e-06,0.0,1759219322736292790
-3.2838834048431586e-06,0.0,1759219322753311593
-5.008081550451628e-06,0.0,1759219322774326715
8.486540276780538e-06,0.0,1759219322794767697
-4.159255612846726e-06,0.0,1759219322814522539
3.1604746946760246e-06,0.0,1759219322834217587
-3.92874004507921e-06,0.0,1759219322854109790
-5.0243042548053215e-06,0.0,1759219322873528816
7.051749400712556e-07,0.0,1759219322895127760
-3.8016071559084678e-06,0.0,1759219322913193456
2.8949444383354713e-07,0.0,1759219322935352076
-4.213025668502867e-06,0.0,1759219322953535088
-4.78001018428049e-06,0.0,1759219322973301815
-7.674689006777822e-06,0.0,1759219322995690262
-5.996661665144055e-06,0.0,1759219323013753355
-6.55854064001363e-06,0.0,1759219323035514596
-3.836305102688812e-06,0.0,1759219323054151112
-3.0134690665723756e-06,0.0,1759219323073144510
-6.5799523700896876e-06,0.0,1759219323094564948
-2.1255876813424026e-06,0.0,1759219323114062154
-5.781339773256603e-06,0.0,1759219323134255494
-1.2846673508857992e-06,0.0,1759219323154038480
-8.567152201673398e-07,0.0,1759219323173157126
-2.476878074692579e-06,0.0,1759219323195165527
-1.2484310985811774e-06,0.0,1759219323213414486
-2.0368988137705604e-06,0.0,1759219323235647170
-7.915774617656094e-07,0.0,1759219323253620463
5.314235293737279e-07,0.0,1759219323274294447
-3.3292017081198968e-06,0.0,1759219323294743588
5.867772039370425e-07,0.0,1759219323314034613
-3.0810461910153023e-06,0.0,1759219323334195122
8.527424291127024e-07,0.0,1759219323354207042
1.0462855907730364e-06,0.0,1759219323373409961
-6.755363716387275e-07,0.0,1759219323395177404
2.862950138159009e-07,0.0,1759219323413830428
-6.331047159086649e-07,0.0,1759219323435103638
3.8255685569295875e-07,0.0,1759219323453500468
1.51349147778902e-06,0.0,1759219323474090199
-2.183876964414701e-06,0.0,1759219323494533947
1.361383457741216e-06,0.0,1759219323513962010
1.531689648077148e-05,0.0,1759219323535179948
1.118168383340691e-06,0.0,1759219323554091503
-4.979194067212867e-07,0.0,1759219323573329391
-2.992068494609024e-06,0.0,1759219323595168805
-1.4159604024027714e-06,0.0,1759219323613219751
-2.2818109405396364e-06,0.0,1759219323635706780
-1.277200211388414e-06,0.0,1759219323653373164
-1.9679995483701605e-07,0.0,1759219323674118997
-1.9647639483886394e-05,0.0,1759219323694871811
2.222401374068083e-07,0.0,1759219323713944622
-1.910861204600726e-05,0.0,1759219323735232043
3.975773149192653e-06,0.0,1759219323754066759
6.050367313964134e-06,0.0,1759219323773409973
4.946869903304896e-06,0.0,1759219323795521315
5.839717395867823e-06,0.0,1759219323813488808
4.597735485214729e-06,0.0,1759219323835491682
5.16622068968274e-06,0.0,1759219323853483199
5.063276302048029e-06,0.0,1759219323874464355
3.0596834556190345e-06,0.0,1759219323894954757
4.046558819212168e-06,0.0,1759219323914149457
2.3681923886145008e-06,0.0,1759219323935040944
3.5059218008070895e-06,0.0,1759219323953980200
3.4487566150539575e-06,0.0,1759219323973143603
5.174283820825778e-07,0.0,1759219323994600467
3.005710602771743e-06,0.0,1759219324014490798
1.95140332347135e-06,0.0,1759219324035813080
2.675770352025582e-06,0.0,1759219324053133240
2.597404115853541e-06,0.0,1759219324073388345
1.0413765373730233e-05,0.0,1759219324095343098
5.7883313961650995e-06,0.0,1759219324113503424
8.89139828306473e-06,0.0,1759219324135431976
4.110788494713219e-06,0.0,1759219324153646406
-1.0152062839806207e-06,0.0,1759219324174239220
1.3604389466104888e-05,0.0,1759219324194550857
-1.309194574476955e-06,0.0,1759219324213983231
1.2270025100902472e-05,0.0,1759219324234577130
-2.89378848737805e-06,0.0,1759219324254291296
-3.6819444666573658e-06,0.0,1759219324273151597
2.7912948384781776e-06,0.0,1759219324295114472
-9.452217223418579e-07,0.0,1759219324313463841
2.3898458840578625e-06,0.0,1759219324335625345
-1.656005528229224e-06,0.0,1759219324353099085
-5.847449661653113e-06,0.0,1759219324374056308
-9.786948633370957e-06,0.0,1759219324394319986
-5.691657694644563e-06,0.0,1759219324414112505
-8.899165023720404e-06,0.0,1759219324434882469
-4.050794571890886e-06,0.0,1759219324454022890
-3.3536183764569515e-06,0.0,1759219324473237477
-4.679990510648958e-06,0.0,1759219324495888829
-3.2195390413798866e-06,0.0,1759219324513775790
-3.834787967143675e-06,0.0,1759219324535250357
-2.4282703377213997e-06,0.0,1759219324553523750
-9.590380575030287e-07,0.0,1759219324574484510
1.3593213783099081e-05,0.0,1759219324594424779
3.3853139257043833e-07,0.0,1759219324614431929
1.3325069377064922e-05,0.0,1759219324634906370
-1.467546177118301e-06,0.0,1759219324654322095
-2.968163233467134e-06,0.0,1759219324673389745
3.6461941911917226e-06,0.0,1759219324695039987
1.8197940095730852e-07,0.0,1759219324713608756
6.654393061134806e-06,0.0,1759219324735940309
7.802672189949845e-07,0.0,1759219324753654749
-5.367402319149454e-06,0.0,1759219324774565539
-1.0407196579162994e-05,0.0,1759219324794324085
-5.749212587017824e-06,0.0,1759219324814129382
-9.86570976286815e-06,0.0,1759219324834233575
-4.275519878404345e-06,0.0,1759219324853994023
-3.2793320331997792e-06,0.0,1759219324873172132
-5.165958291918636e-06,0.0,1759219324895051101
-2.799886928551039e-06,0.0,1759219324913343734
-3.700208719526791e-06,0.0,1759219324935716508
-1.6998630762515685e-06,0.0,1759219324953687265
-8.545407332534224e-07,0.0,1759219324973885529
-3.2111496294374146e-06,0.0,1759219324994267359
-1.8066659266784089e-06,0.0,1759219325013381439
-2.6894331127913285e-06,0.0,1759219325035152447
-2.256170254605037e-07,0.0,1759219325054390769
2.72638113048529e-07,0.0,1759219325073506801
-4.012726407499672e-06,0.0,1759219325094563067
5.09197211874544e-07,0.0,1759219325114041804
-3.5793774342863654e-06,0.0,1759219325134963613
1.0779310737174414e-06,0.0,1759219325154336444
1.2979358642866984e-06,0.0,1759219325173225462
-6.411981280019076e-07,0.0,1759219325195777937
5.008214596410743e-07,0.0,1759219325213601034
-5.640939098803551e-07,0.0,1759219325235400743
5.896688393455954e-07,0.0,1759219325253544328
1.8349770656737388e-06,0.0,1759219325274769671
-2.6426172631815407e-06,0.0,1759219325294330964
1.421870488343324e-06,0.0,1759219325314072796
-2.495523271834193e-06,0.0,1759219325335026407
1.89435119271724e-06,0.0,1759219325353997060
2.000273335453856e-06,0.0,1759219325373549491
4.881206145638398e-08,0.0,1759219325395193583
1.0508310027302195e-06,0.0,1759219325413072009
5.802806694871038e-06,0.0,1759219325435050700
3.636911170212775e-06,0.0,1759219325453379503
1.35870237615733e-06,0.0,1759219325474099146
8.03248840503607e-06,0.0,1759219325494973565
8.001794644767733e-07,0.0,1759219325514446650
7.308602162343903e-06,0.0,1759219325534598743
-2.5189674305288007e-07,0.0,1759219325553952306
-7.25398117861292e-07,0.0,1759219325573570265
-1.2761461398881838e-05,0.0,1759219325595613069
-6.231538316360846e-06,0.0,1759219325613773498
-1.1104725921927391e-05,0.0,1759219325635575319
-4.185101506106412e-06,0.0,1759219325653416324
3.04240407527169e-06,0.0,1759219325674426739
-1.8989593949095673e-05,0.0,1759219325694415920
2.608636117081965e-06,0.0,1759219325714107355
-1.7911751875001555e-05,0.0,1759219325734244363
3.996861157835187e-06,0.0,1759219325754428225
6.190293574241343e-06,0.0,1759219325773193058
-4.13210417611103e-06,0.0,1759219325794991474
4.2782325399207625e-06,0.0,1759219325813501306
-1.4326655943040774e-06,0.0,1759219325835340613
5.93279572598153e-06,0.0,1759219325853117339
8.157831347417475e-06,0.0,1759219325874619124
-3.403726628696233e-06,0.0,1759219325894685056
5.748054315686854e-06,0.0,1759219325914682800
-1.2308787686532395e-05,0.0,1759219325934487641
6.397241603650369e-06,0.0,1759219325954000265
7.86542030672423e-06,0.0,1759219325973606228
7.185928269653567e-06,0.0,1759219325996020059
7.290191264025522e-06,0.0,1759219326013287473
6.254457822087864e-06,0.0,1759219326035331210
6.154631811888643e-06,0.0,1759219326053655987
5.655719623754779e-06,0.0,1759219326073583771
4.471656561206574e-06,0.0,1759219326095563942
4.387877053979262e-06,0.0,1759219326113753512
3.607887164440086e-06,0.0,1759219326135455034
3.933908859599698e-06,0.0,1759219326155104520
3.699391998050703e-06,0.0,1759219326173430761
1.9760229802018786e-06,0.0,1759219326194484153
3.0566515869391395e-06,0.0,1759219326214459173
1.4567691782087254e-06,0.0,1759219326235174929
2.703373467667559e-06,0.0,1759219326254361715
2.5359182079504428e-06,0.0,1759219326273546580
1.6897762775777725e-06,0.0,1759219326295393756
1.863560183702368e-06,0.0,1759219326313275070
1.3584281387900494e-06,0.0,1759219326335229854
1.5769451055544194e-06,0.0,1759219326353492521
1.840821494837872e-06,0.0,1759219326374475253
3.601823681453383e-07,0.0,1759219326395044040
1.5442213392346364e-06,0.0,1759219326414659685
1.1961530221091556e-07,0.0,1759219326434502612
1.3856464731011002e-06,0.0,1759219326453990651
1.3408571744221386e-06,0.0,1759219326473705575
6.513959150570702e-07,0.0,1759219326495527010
9.018268858276882e-07,0.0,1759219326513818459
5.052408944444158e-07,0.0,1759219326535073554
7.894923765343583e-07,0.0,1759219326553072958
1.1045009633045657e-06,0.0,1759219326574071406
-2.441083446666307e-07,0.0,1759219326594282741
9.014792454952036e-07,0.0,1759219326614277202
-3.354139409418363e-07,0.0,1759219326634831465
8.744201890124191e-07,0.0,1759219326654470644
9.345798519233673e-07,0.0,1759219326673433484
5.936873337152327e-06,0.0,1759219326695538986
1.555349857752649e-06,0.0,1759219326713471396
3.904794679605506e-06,0.0,1759219326735923226
1.4343821998971804e-06,0.0,1759219326753436226
-1.2182731702892439e-06,0.0,1759219326774413004
-1.9401260731952253e-05,0.0,1759219326794568016
-2.0139274205905626e-06,0.0,1759219326814021452
-1.9916394390180192e-05,0.0,1759219326834426356
-1.3271731729153481e-08,0.0,1759219326854404125
2.226230004480183e-06,0.0,1759219326873676440
-6.82062533299966e-06,0.0,1759219326895429166
1.2205567751587554e-06,0.0,1759219326913522728
-3.705565614464218e-06,0.0,1759219326935345342
3.193066429499809e-06,0.0,1759219326953123606
4.244956472579028e-06,0.0,1759219326973563859
5.452269047898975e-06,0.0,1759219326995043590
5.300676891297491e-06,0.0,1759219327014636620
4.7073413565246856e-06,0.0,1759219327034633442
4.386415324925084e-06,0.0,1759219327054249902
3.98150617929385e-06,0.0,1759219327073142380
3.3474660742310775e-06,0.0,1759219327094656962
3.248513474107757e-06,0.0,1759219327114186147
2.8540117411523324e-06,0.0,1759219327135719766
2.6512885404570885e-06,0.0,1759219327153504135
2.403554100385029e-06,0.0,1759219327173817743
7.817160835008174e-06,0.0,1759219327195796066
4.492205456931035e-06,0.0,1759219327214231569
6.808918185572944e-06,0.0,1759219327235183131
3.3804857538609213e-06,0.0,1759219327253835244
-3.5189826643262486e-07,0.0,1759219327274446612
9.985752960230585e-06,0.0,1759219327295062713
-7.356429366231783e-07,0.0,1759219327314489634
9.204550724175248e-06,0.0,1759219327334778798
-1.667690854582432e-06,0.0,1759219327354693046
-2.2733806386400397e-06,0.0,1759219327373680062
-3.472610530231949e-06,0.0,1759219327395114064
-2.983696514166442e-06,0.0,1759219327413479344
-3.0041347122537066e-06,0.0,1759219327435519568
-2.4633023193408603e-06,0.0,1759219327453234343
-1.949004539865537e-06,0.0,1759219327475056311
-2.7013237653198113e-06,0.0,1759219327494372367
-1.5976437908071334e-06,0.0,1759219327513973806
-2.288334222598655e-06,0.0,1759219327534267975
-1.1969332578510025e-06,0.0,1759219327554069875
-1.010859185696016e-06,0.0,1759219327573133901
4.347614897821109e-06,0.0,1759219327595728162
1.4556886048603327e-06,0.0,1759219327613914518
3.820764658920929e-06,0.0,1759219327635329427
7.72178233629161e-07,0.0,1759219327653423007
-2.4831465658000152e-06,0.0,1759219327674114800
7.471460998882072e-06,0.0,1759219327694748257
-2.53013091231702e-06,0.0,1759219327714032121
6.955902170394499e-06,0.0,1759219327734515765
-3.2517472014482466e-06,0.0,1759219327754099064
-4.095215918663562e-06,0.0,1759219327773256302
6.505419330653722e-07,0.0,1759219327795750239
-1.7663201420842289e-06,0.0,1759219327813158008
-3.0003741053942283e-07,0.0,1759219327835466116
-2.3856718380019206e-06,0.0,1759219327853277747
-4.583145246360207e-06,0.0,1759219327874429548
5.101968878986513e-06,0.0,1759219327894654110
