loc_acc_x,loc_acc_y,stamp
0.3865820270419761,0.0,1759204892867073458
0.35434904825954283,0.0,1759204892867127359
0.31891414343358854,0.0,1759204892868633941
0.2922891728126415,0.0,1759204892890565144
0.3900554425125528,0.0,1759204892910716856
0.38116855337531125,0.0,1759204892929780225
0.35552656924731496,0.0,1759204892950826593
0.3199739123225835,0.0,1759204892968604476
0.2934915041031305,0.0,1759204892989952698
0.2625235678340815,0.0,1759204893009960909
0.23589030968530877,0.0,1759204893029772982
0.21617027133697697,0.0,1759204893050558978
0.23518070816894046,0.0,1759204893070003229
0.2175725655594406,0.0,1759204893089855849
0.2026303609061151,0.0,1759204893109601800
0.18390131805387416,0.0,1759204893129987698
0.1695264470503072,0.0,1759204893149956970
0.23474466881718287,0.0,1759204893170136549
0.21759337147292793,0.0,1759204893190047875
0.2585488790032089,0.0,1759204893209631956
0.24920635320107543,0.0,1759204893229686592
0.22750212450611587,0.0,1759204893249819355
0.3237616104349881,0.0,1759204893269541077
0.2949239284195441,0.0,1759204893290095767
0.29093411871761676,0.0,1759204893309741206
0.27220765195646396,0.0,1759204893329698243
0.2475217126445113,0.0,1759204893349841061
0.3094277445585307,0.0,1759204893369993644
0.28161832692890076,0.0,1759204893390824715
0.272594195710751,0.0,1759204893409893879
0.24533477613967591,0.0,1759204893428629431
0.2710897993517911,0.0,1759204893451045464
0.2530497339359047,0.0,1759204893469562382
0.23095045740040546,0.0,1759204893489915704
0.28193792557765,0.0,1759204893509921255
0.2617835629814922,0.0,1759204893530104708
0.2646970709865696,0.0,1759204893550063627
0.2434452770309153,0.0,1759204893570082989
0.2225015506527468,0.0,1759204893589852832
0.23635436176060776,0.0,1759204893610000839
0.22125156576400387,0.0,1759204893629917808
0.2566243546577771,0.0,1759204893649723911
0.24094959392061008,0.0,1759204893669826724
0.22027376900255385,0.0,1759204893689936518
0.27368948888189437,0.0,1759204893709689173
0.25457362398112726,0.0,1759204893730211158
0.25898466462285985,0.0,1759204893749662165
0.2381139768604957,0.0,1759204893770201660
0.2175636001980314,0.0,1759204893789982453
0.27000955004724886,0.0,1759204893809646521
0.25083352216789245,0.0,1759204893829874588
0.25476272897137725,0.0,1759204893849609468
0.23434516250500984,0.0,1759204893869672081
0.21404127318464664,0.0,1759204893889832969
0.2540938913077432,0.0,1759204893909675095
0.2355794090604432,0.0,1759204893929927144
0.15781278022913134,0.0,1759204893949658631
0.1326203228341692,0.0,1759204893969689255
0.1226386438681892,0.0,1759204893989888689
0.060707300005950995,0.0,1759204894009678935
0.060395407482931505,0.0,1759204894029996676
-0.005430125922315898,0.0,1759204894050349197
-0.019053972275816615,0.0,1759204894070252255
-0.014627106865561566,0.0,1759204894089823680
-0.1488610871886591,0.0,1759204894109921784
-0.1339749784697932,0.0,1759204894128918584
0.0007241454353885124,0.0,1759204894151057709
0.03308846919153837,0.0,1759204894169854406
0.031880520379925746,0.0,1759204894189970439
-0.13345416040516467,0.0,1759204894209624297
-0.11578414047687383,0.0,1759204894230009235
-0.23824337305166393,0.0,1759204894249975887
-0.21441903574649754,0.0,1759204894269116018
-0.21881279071158796,0.0,1759204894291318802
-0.19693151164042916,0.0,1759204894309124589
-0.07150263710599275,0.0,1759204894330961347
-0.21663178152919615,0.0,1759204894349877828
-0.19496860337627656,0.0,1759204894368974261
-0.20300425051961296,0.0,1759204894391687424
-0.18270382546765168,0.0,1759204894408864537
-0.17474234082370002,0.0,1759204894430867199
-0.164977139654518,0.0,1759204894449748382
-0.1484794256890662,0.0,1759204894468589912
-0.13353594984193143,0.0,1759204894491003788
-0.12018235485773829,0.0,1759204894508638703
-0.18281427586263588,0.0,1759204894531022212
-0.10234984187583027,0.0,1759204894549888385
-0.09211485768824725,0.0,1759204894568600147
-0.0781542277318808,0.0,1759204894590019776
-0.18844868487711428,0.0,1759204894609919382
-0.19281458678462923,0.0,1759204894630821591
-0.14259465868109306,0.0,1759204894649609990
-0.12833519281298375,0.0,1759204894668922295
-0.11134115410351957,0.0,1759204894690133509
-0.13944764309029606,0.0,1759204894709638547
-0.13418181695963485,0.0,1759204894730086672
-0.11797415341013487,0.0,1759204894750432851
-0.15650426443061732,0.0,1759204894769751755
-0.13587719475302446,0.0,1759204894790135449
-0.05149586542415775,0.0,1759204894809611097
-0.030384698612460025,0.0,1759204894829754278
-0.02407672212719253,0.0,1759204894850006311
-0.1480887713655278,0.0,1759204894869633620
-0.1282452882885426,0.0,1759204894889803631
-0.06782473635965794,0.0,1759204894910043555
-0.04980216546823714,0.0,1759204894930007432
-0.041310712199014575,0.0,1759204894949843345
-0.12756889956568382,0.0,1759204894969738991
-0.11123116376690943,0.0,1759204894990264719
-0.04088601849407991,0.0,1759204895009635136
-0.013857306801354788,0.0,1759204895030323254
-0.010442130450896989,0.0,1759204895049921152
0.039050048209066594,0.0,1759204895069650387
0.03768836058980537,0.0,1759204895090115468
0.04367905400081348,0.0,1759204895109692873
0.039311148600732135,0.0,1759204895128646190
0.040619286779284475,0.0,1759204895151263466
0.036228253142879564,0.0,1759204895169742788
0.03511578940781663,0.0,1759204895189910228
0.06747185137101963,0.0,1759204895209779670
0.06072466623391767,0.0,1759204895228566774
0.0694897059699359,0.0,1759204895251134892
0.06555840760811897,0.0,1759204895269803211
0.06149212830267021,0.0,1759204895290056505
0.05438610178877747,0.0,1759204895309680429
0.048947491609899724,0.0,1759204895328690465
0.08646340045364787,0.0,1759204895350956047
0.08544812115712193,0.0,1759204895369664890
0.07957542482987841,0.0,1759204895390032851
0.07243676459635576,0.0,1759204895409835012
0.06519308813672019,0.0,1759204895428601738
0.1435386699620734,0.0,1759204895450795913
0.1455600419918378,0.0,1759204895469664168
0.13369668928043973,0.0,1759204895489856272
0.081567418654693,0.0,1759204895509753365
0.0734106767892237,0.0,1759204895528600570
0.17242004634691238,0.0,1759204895551150835
0.1840410984054219,0.0,1759204895569918219
0.1676343939723049,0.0,1759204895589899898
0.11740723001123635,0.0,1759204895609638239
0.10566650701011271,0.0,1759204895628594952
0.12590083292712467,0.0,1759204895651374896
0.12097710094221593,0.0,1759204895670136149
0.11081158704623255,0.0,1759204895689988416
0.18810205294925028,0.0,1759204895709734518
0.17342389587968035,0.0,1759204895729881857
0.2213501364993185,0.0,1759204895749566997
0.19921512284938667,0.0,1759204895768945639
0.19446757514172447,0.0,1759204895791639203
0.17502081762755203,0.0,1759204895808609739
0.08118997809307973,0.0,1759204895829712686
0.13390832794265856,0.0,1759204895851164656
0.1205174951483927,0.0,1759204895868605391
0.11417069519619101,0.0,1759204895890368599
0.15861001233331767,0.0,1759204895910007507
0.15566851772152257,0.0,1759204895929733819
0.21390418490068092,0.0,1759204895950673107
0.19251376641061282,0.0,1759204895968628209
0.17855474591416703,0.0,1759204895990007044
0.2632498563042473,0.0,1759204896010064813
0.2610873715270365,0.0,1759204896029827620
0.2387348166266591,0.0,1759204896050384359
0.3089436047866696,0.0,1759204896070315960
0.28368360462875847,0.0,1759204896089836652
0.3189558923948699,0.0,1759204896110159211
0.3025636639941015,0.0,1759204896129590942
0.27594189349559717,0.0,1759204896150209353
0.2520018711115508,0.0,1759204896169956390
0.2324259031694416,0.0,1759204896189839744
0.20608840293283148,0.0,1759204896209844707
0.18464063308325385,0.0,1759204896229666006
0.16876411699320773,0.0,1759204896249890382
0.19315976774062243,0.0,1759204896269759438
0.17678991223230076,0.0,1759204896290011096
0.2049382805596764,0.0,1759204896309629551
0.20319031029417908,0.0,1759204896329725412
0.18489521426734337,0.0,1759204896350061368
0.21440813515164708,0.0,1759204896369586202
0.19605387611761896,0.0,1759204896389959179
0.22277443857537885,0.0,1759204896409863267
0.20049699471784097,0.0,1759204896428895977
0.24256104404156298,0.0,1759204896451078361
0.22964153962243605,0.0,1759204896469837617
0.20985072497980614,0.0,1759204896490130278
0.19061409944758945,0.0,1759204896509778141
0.17925822066049057,0.0,1759204896530379243
0.2482146301176822,0.0,1759204896550265406
0.2392601744523544,0.0,1759204896569622494
0.21876093482212058,0.0,1759204896589924705
0.16283194787414343,0.0,1759204896609631159
0.15461058272068745,0.0,1759204896630338858
0.16343269132726876,0.0,1759204896649840840
0.15132439839979417,0.0,1759204896669654997
0.13958758870611263,0.0,1759204896689962349
0.12493399272199136,0.0,1759204896709647086
0.11244059344979222,0.0,1759204896728605267
0.06109454401384923,0.0,1759204896750893959
0.044977292281398365,0.0,1759204896769711930
0.043998493419576894,0.0,1759204896790002532
-0.05391356727326645,0.0,1759204896809648082
-0.0485222105459398,0.0,1759204896828642674
-0.06476996579146016,0.0,1759204896851055475
-0.06566248960659085,0.0,1759204896870190341
-0.05631633737136283,0.0,1759204896890552778
-0.10060765758635204,0.0,1759204896909661589
-0.09054689182771684,0.0,1759204896928625298
-0.0916496840526175,0.0,1759204896951250526
-0.08248471564735575,0.0,1759204896968917352
-0.07563748107908908,0.0,1759204896991248208
-0.06807373297118018,0.0,1759204897008666410
-0.06472470036886654,0.0,1759204897029819450
-0.1381002218761176,0.0,1759204897051204780
-0.12429019968850584,0.0,1759204897068604746
-0.10518681278042726,0.0,1759204897090281726
-0.21475684226287373,0.0,1759204897109655903
-0.2197597179564352,0.0,1759204897130047000
-0.20729210628811687,0.0,1759204897151025413
-0.18656289565930517,0.0,1759204897168937818
-0.16790660609337466,0.0,1759204897189216635
-0.23317266467126985,0.0,1759204897210857827
-0.23272685212221111,0.0,1759204897229988787
-0.20591583528130006,0.0,1759204897249949022
-0.2814661906161578,0.0,1759204897270424333
-0.24814219345097646,0.0,1759204897290735961
-0.3738189098100386,0.0,1759204897310016026
-0.37104018037225783,0.0,1759204897329680276
-0.3305058693879044,0.0,1759204897350023499
-0.5041003897221853,0.0,1759204897369657817
-0.45028764198415727,0.0,1759204897390081018
-0.5585809267319136,0.0,1759204897409815021
-0.5027228340587223,0.0,1759204897428589644
-0.6216094814079721,0.0,1759204897450819777
-0.6154494590982835,0.0,1759204897470052830
-0.5515192135668845,0.0,1759204897489955924
-0.9530312425785149,0.0,1759204897509703861
-0.8577281183206634,0.0,1759204897528647954
-1.4984236291897752,0.0,1759204897550964701
-1.5878793437375898,0.0,1759204897570073778
-1.4268407039947195,0.0,1759204897589855437
-1.6675483597624927,0.0,1759204897609657009
-1.4945668314705676,0.0,1759204897630028273
-1.8967760730665484,0.0,1759204897649780880
-1.804296104883316,0.0,1759204897669598734
-1.6212200582630576,0.0,1759204897690887000
-1.9009763693496686,0.0,1759204897709972589
-1.702928683055438,0.0,1759204897730034981
-2.154301618125,0.0,1759204897749680035
-2.0462738831735465,0.0,1759204897769706176
-1.8404601348585832,0.0,1759204897789929708
-1.994036284381212,0.0,1759204897809675505
-1.7917425746569793,0.0,1759204897830239117
-2.140632751378544,0.0,1759204897849702344
-2.0135404053754375,0.0,1759204897870670731
-1.8108996099552737,0.0,1759204897890979561
-1.983086786915776,0.0,1759204897909908218
-1.7818212253860592,0.0,1759204897929991341
-1.9022037836324484,0.0,1759204897949672917
-1.7119834052692036,0.0,1759204897968897027
-1.6028348645019277,0.0,1759204897991021883
-1.8334213847437462,0.0,1759204898010044084
-1.6504812977701318,0.0,1759204898029926538
-1.7474225469029334,0.0,1759204898049805673
-1.5726802922126402,0.0,1759204898069083782
-1.4695372496370727,0.0,1759204898091293019
-1.3225835246733655,0.0,1759204898109026504
-1.2135728214969064,0.0,1759204898130874367
-1.0995698041167576,0.0,1759204898149680032
-0.9896128237050819,0.0,1759204898168642726
-0.8933487236655893,0.0,1759204898191016523
-0.8040138512990304,0.0,1759204898208858101
-2.2616654031628496,0.0,1759204898231136523
-2.546449015426001,0.0,1759204898249773873
-2.291804113883401,0.0,1759204898268691061
-2.066323130968129,0.0,1759204898290203653
-1.986900485844289,0.0,1759204898309687257
-1.815758434257212,0.0,1759204898330477637
-1.6367006969280056,0.0,1759204898350233822
-1.4835823815291418,0.0,1759204898369611162
-1.3388397770862384,0.0,1759204898390408255
-1.2050826017179765,0.0,1759204898409759958
-1.0869619531980257,0.0,1759204898431043318
-0.9782657578782231,0.0,1759204898448605296
-0.8787492794525749,0.0,1759204898469922948
-0.7938463452241571,0.0,1759204898490028943
-0.7117215973076452,0.0,1759204898509791610
-0.6399492128186369,0.0,1759204898530558154
-0.5781854098067644,0.0,1759204898550038995
-0.5183425095641736,0.0,1759204898570009010
-0.4696048446366737,0.0,1759204898589857713
-0.4202935101020921,0.0,1759204898609857384
-0.38489643774718585,0.0,1759204898629833066
-0.3401226793357879,0.0,1759204898649631760
-0.30504118411237346,0.0,1759204898670201700
-0.27662257338381097,0.0,1759204898690145280
-0.24724243449728606,0.0,1759204898709671771
-0.22765743656360374,0.0,1759204898730209353
-0.19981693141385,0.0,1759204898749650092
-0.17898874914691948,0.0,1759204898770297417
-0.1629853084381856,0.0,1759204898790216001
-0.1451847168328,0.0,1759204898809851806
-0.13066624514952,0.0,1759204898828643314
-0.11792983118603846,0.0,1759204898850928081
-0.10528448974035548,0.0,1759204898869982865
-0.09651377742272493,0.0,1759204898890252038
-0.08522089124204768,0.0,1759204898909992021
-0.07669880211784291,0.0,1759204898928606275
-0.06944014963772496,0.0,1759204898951108935
-0.062496134673952465,0.0,1759204898968768362
-0.056794020316583246,0.0,1759204898990898345
-0.051114618284924924,0.0,1759204899008601441
-0.04487535470831259,0.0,1759204899030248728
-0.04086557841202913,0.0,1759204899050812419
-0.03677902057082622,0.0,1759204899069078168
-0.03364168707369869,0.0,1759204899090990578
-0.03027751836632882,0.0,1759204899108784443
-0.026190616887386633,0.0,1759204899129878043
-0.02401676113460217,0.0,1759204899150923918
-0.021615085021141955,0.0,1759204899168964125
-0.022412073546635398,0.0,1759204899190088817
-0.01725124038712588,0.0,1759204899210191415
-0.01482735600199921,0.0,1759204899229670360
-0.015348969075094764,0.0,1759204899250309853
-0.0119638486289657,0.0,1759204899269729575
-0.013348881493578806,0.0,1759204899290339404
-0.009508921130895055,0.0,1759204899309894463
-0.007979683972772747,0.0,1759204899329666298
-0.009086933124471043,0.0,1759204899349933913
-0.0065334665842726545,0.0,1759204899369919522
-0.008279607741396989,0.0,1759204899390945362
-0.00506227063804371,0.0,1759204899410067554
-0.003924364457163898,0.0,1759204899429638873
-0.004837757485615523,0.0,1759204899450135907
-0.0031858790149228797,0.0,1759204899469626463
-0.00416693387258534,0.0,1759204899489942624
-0.002642269377655038,0.0,1759204899509747603
-0.005891599649490445,0.0,1759204899530429818
-0.001829981138567071,0.0,1759204899549629172
-0.0010569842175137119,0.0,1759204899569644278
-0.0020130871720414794,0.0,1759204899589976681
-0.0009198484034350636,0.0,1759204899609634119
-0.0008278635630915573,0.0,1759204899628641319
-0.0009072060697607312,0.0,1759204899651549787
-0.00030656272612565485,0.0,1759204899669658934
-0.0012662404775715043,0.0,1759204899689889372
-0.00034840722725089325,0.0,1759204899709611532
-0.00031356650452580393,0.0,1759204899728620445
-0.0004510605864999459,0.0,1759204899751746988
7.48117897579436e-05,0.0,1759204899769711959
-0.0010016652318733568,0.0,1759204899789872095
-6.800791005381055e-05,0.0,1759204899809608956
-6.120711904842949e-05,0.0,1759204899828981012
-0.0002510608460742825,0.0,1759204899851723386
0.00029118281666029404,0.0,1759204899869656933
-0.000747409148525563,0.0,1759204899889866714
0.00026359888097166864,0.0,1759204899909668667
0.0002372389928745018,0.0,1759204899928576990
-2.3741274397415246e-05,0.0,1759204899950970930
-2.1367146957673722e-05,0.0,1759204899968665694
-0.00024057655914562766,0.0,1759204899991051919
-0.0002165189032310649,0.0,1759204900008624428
0.00039715437610686314,0.0,1759204900029796327
0.00013776788911458386,0.0,1759204900051038864
0.00012399110020312547,0.0,1759204900068594619
-0.001365165982274532,0.0,1759204900090537874
0.00036730108543950334,0.0,1759204900109753746
-0.00035462085336761707,0.0,1759204900131011296
0.0006646784168496337,0.0,1759204900149990004
0.0005982105751646704,0.0,1759204900168614626
-0.0009958685771035741,0.0,1759204900190170386
0.0005716946632320209,0.0,1759204900209988024
0.0008476239965081615,0.0,1759204900230421580
-0.00045718304059641653,0.0,1759204900249955626
0.0006145093979517765,0.0,1759204900269590629
-0.0007125003981154244,0.0,1759204900290154685
0.0005924989447699036,0.0,1759204900309986814
0.0008237522684944642,0.0,1759204900329739907
-0.00017876069183229211,0.0,1759204900350103969
0.0006624205523142428,0.0,1759204900369630377
-0.0008666797704132925,0.0,1759204900389974326
0.0005359865710455736,0.0,1759204900409722394
0.0008339698334956494,0.0,1759204900429734953
-2.1022226292790377e-05,0.0,1759204900450053326
0.0006636381612840344,0.0,1759204900469723378
-0.0001666394007314335,0.0,1759204900489850153
0.0004941027275516635,0.0,1759204900510105134
0.0004446924547964972,0.0,1759204900528740073
0.00011495318050042954,0.0,1759204900550858157
0.0006284529071311227,0.0,1759204900570036128
-0.0001246977143046625,0.0,1759204900589837791
0.0004334703663765796,0.0,1759204900610002491
0.00039012332973892164,0.0,1759204900628850244
6.64392447977995e-05,0.0,1759204900651205207
0.0005656363737119081,0.0,1759204900669659200
-0.00012906390770540434,0.0,1759204900689861160
0.000407205583266105,0.0,1759204900709591368
-0.001491962610049974,0.0,1759204900729937454
0.00038226834245535233,0.0,1759204900749793255
0.0006481230511100957,0.0,1759204900769704479
-3.817205396388864e-05,0.0,1759204900790230659
0.00047510422977838464,0.0,1759204900809975500
0.00042759380680054617,0.0,1759204900828675749
0.0002781969919453631,0.0,1759204900850872859
0.0005394044741367328,0.0,1759204900869650876
3.7595368637450015e-05,0.0,1759204900890162066
0.0004800390067599682,0.0,1759204900909864235
0.0004320351060839714,0.0,1759204900928581496
0.0002883760918259246,0.0,1759204900950896324
0.00044536146448092965,0.0,1759204900969947569
-9.03277192790968e-05,0.0,1759204900989812244
0.00034968253873861056,0.0,1759204901009730125
0.00031471428486474953,0.0,1759204901028619172
0.00010940647403944901,0.0,1759204901050893459
9.846582663550412e-05,0.0,1759204901068743621
-0.00011999032783283553,0.0,1759204901090867028
-0.00010799129504955197,0.0,1759204901108673040
0.00029590879914172073,0.0,1759204901130168225
9.32016169192155e-05,0.0,1759204901150674321
8.388145522729396e-05,0.0,1759204901168590852
7.549330970456457e-05,0.0,1759204901188781855
6.856797096581926e-06,0.0,1759204901210922895
0.0002785552106535521,0.0,1759204901229760304
0.0001471422465425993,0.0,1759204901250839086
0.00013242802188833937,0.0,1759204901268616050
-0.0008246238974214911,0.0,1759204901290059370
0.00020278810951474902,0.0,1759204901309658873
0.0003932624132325145,0.0,1759204901330130176
-0.00037581257296887514,0.0,1759204901350197611
0.0003019028574039523,0.0,1759204901369721948
-0.0005383472532742807,0.0,1759204901389929932
0.0002876490353837258,0.0,1759204901410024599
0.00043949527117679454,0.0,1759204901430036203
-0.00019495225340637507,0.0,1759204901450338908
0.000349015967411454,0.0,1759204901469754179
-0.00045744442544963705,0.0,1759204901489955813
0.00028839389103600704,0.0,1759204901510362021
0.00043073179351839385,0.0,1759204901529670448
-0.0001674457492535738,0.0,1759204901550128751
0.0003757297765048372,0.0,1759204901569801433
-3.956780877416126e-05,0.0,1759204901589915019
0.0003036654142049047,0.0,1759204901609634428
-0.0005245881870812641,0.0,1759204901629876866
0.000314987816278488,0.0,1759204901649679022
0.0004208282647129763,0.0,1759204901669700399
0.00012758169986776605,0.0,1759204901689840836
0.0003168990010346236,0.0,1759204901710159177
-0.0003539073696051721,0.0,1759204901730336901
0.00029907735467254624,0.0,1759204901749766546
0.0003740435127521528,0.0,1759204901770101308
-0.00010046133055507863,0.0,1759204901789872140
0.00021878878745473307,0.0,1759204901809584794
0.00019690990870925977,0.0,1759204901828596239
8.79913229204004e-05,0.0,1759204901851013313
0.00027516645898128763,0.0,1759204901870059178
-0.00015581889436691864,0.0,1759204901889896684
0.00018157024400864368,0.0,1759204901909642610
-0.0008825158806908694,0.0,1759204901930124239
0.00022081260735768566,0.0,1759204901949744100
0.00037001749017036376,0.0,1759204901970144631
1.0123777978207204e-05,0.0,1759204901989811771
0.00027010904567968555,0.0,1759204902009669162
-0.0005834978364577042,0.0,1759204902029873316
0.0002505837347539344,0.0,1759204902049842164
0.00036263835583739783,0.0,1759204902070001711
2.50879455663897e-05,0.0,1759204902089861280
0.0002948584458584689,0.0,1759204902109939135
-0.0002960372704426276,0.0,1759204902130336928
0.0002358056730809739,0.0,1759204902149940576
0.0002122251057728765,0.0,1759204902169165843
9.753027558930178e-05,0.0,1759204902191045861
8.77772480303716e-05,0.0,1759204902208597089
0.0002682398429870913,0.0,1759204902230310698
0.00016270824871127376,0.0,1759204902251223146
0.00014643742384014638,0.0,1759204902268885300
-0.0003844422374065336,0.0,1759204902290370304
0.0001983166025257181,0.0,1759204902309675364
-5.400744890270609e-05,0.0,1759204902331025788
0.0002914423753100037,0.0,1759204902349793186
0.0002622981377790034,0.0,1759204902368576640
-0.00020074075827477894,0.0,1759204902390380776
0.0002709009259823794,0.0,1759204902409695019
1.6080995871319107e-05,0.0,1759204902431025668
1.4472896284187196e-05,0.0,1759204902448657839
0.00028806536044228084,0.0,1759204902469827074
-0.00018935721802174678,0.0,1759204902489860483
0.00024316947941270542,0.0,1759204902509621895
2.4978313986569103e-07,0.0,1759204902530750898
2.2480482587912192e-07,0.0,1759204902548650786
0.0002787081604816952,0.0,1759204902570012780
-8.451087072525431e-05,0.0,1759204902589940497
0.00019231444698855502,0.0,1759204902609833768
0.00017308300228969953,0.0,1759204902628983138
7.913542049096153e-05,0.0,1759204902651292412
0.00025464830463382213,0.0,1759204902670066531
0.00015083051634416357,0.0,1759204902689783236
0.00022297266416925062,0.0,1759204902710217030
-2.537792376237707e-05,0.0,1759204902729991087
0.0001901987749842628,0.0,1759204902750129096
0.00020921765834376816,0.0,1759204902770046032
-2.5877030794068734e-05,0.0,1759204902789860302
0.00012249361989748726,0.0,1759204902809787613
-0.0004295866022764252,0.0,1759204902830188923
0.00011505602373444929,0.0,1759204902850059042
0.00019397580128086695,0.0,1759204902869672468
-1.566324401080298e-05,0.0,1759204902890343915
0.00014205105240093277,0.0,1759204902909954576
-0.0003836412569823734,0.0,1759204902930194613
0.0001432677351719011,0.0,1759204902949774311
0.00021447259147019758,0.0,1759204902969605871
-0.0001868355622214922,0.0,1759204902990038896
0.00010402531817354447,0.0,1759204903009874383
9.362278635619002e-05,0.0,1759204903028663103
1.8676868564975553e-06,0.0,1759204903050898568
0.00017468066294377122,0.0,1759204903069840036
-0.0002097338334293921,0.0,1759204903089919427
9.9061024937628e-05,0.0,1759204903109624859
8.915492244386521e-05,0.0,1759204903128610938
1.5373720442870322e-05,0.0,1759204903150957411
0.0001827746890696037,0.0,1759204903169631707
-0.00017794088443457857,0.0,1759204903189864929
0.0001538999126466918,0.0,1759204903209932422
0.0001385099213820226,0.0,1759204903228583263
4.5700079263490356e-05,0.0,1759204903251340510
4.113007133714132e-05,0.0,1759204903269205354
-6.895959269241908e-05,0.0,1759204903291128993
-6.206363342317718e-05,0.0,1759204903308594907
0.0001626809318018862,0.0,1759204903330267172
5.620754238810104e-05,0.0,1759204903351269082
5.0586788149290935e-05,0.0,1759204903368577171
-0.0005374115026933044,0.0,1759204903390596128
0.0001327319464122516,0.0,1759204903410207289
0.00026329853679296514,0.0,1759204903429664277
0.00018159476942227075,0.0,1759204903450988859
0.00016343529248004368,0.0,1759204903468942095
-0.0003641327336865094,0.0,1759204903490395833
0.000194257398038392,0.0,1759204903509710521
0.0002910240832258117,0.0,1759204903529854850
-0.00030724391770376006,0.0,1759204903550625306
0.0002185898898237236,0.0,1759204903569791162
-0.0001882954993426141,0.0,1759204903589887447
0.00024986030269391515,0.0,1759204903609725633
0.00032118333474400135,0.0,1759204903629697741
1.1714217839703378e-05,0.0,1759204903649879030
0.00027481753631841357,0.0,1759204903669810914
-3.458587120446963e-05,0.0,1759204903690087946
0.00020041053059335963,0.0,1759204903709902251
-0.0004202743246335549,0.0,1759204903730213239
0.0001641983534854891,0.0,1759204903749855036
0.0002976587167159378,0.0,1759204903769619800
2.570419925555575e-05,0.0,1759204903790022886
0.00021840529605624166,0.0,1759204903809583232
0.0001965647664506175,0.0,1759204903828612656
7.300375971501647e-05,0.0,1759204903850778156
0.00023693955248221376,0.0,1759204903870119262
-1.4867320829814679e-05,0.0,1759204903890138752
0.00017505998930760592,0.0,1759204903909606504
0.00015755399037684534,0.0,1759204903928614296
8.855425060031576e-05,0.0,1759204903951642678
0.0001992123040056562,0.0,1759204903969594779
-0.00011332814689789448,0.0,1759204903989843941
0.00011961245872966025,0.0,1759204904009796579
0.00010765121285669423,0.0,1759204904028676189
4.363177754062139e-05,0.0,1759204904051265483
0.00017568349013819613,0.0,1759204904069567496
-0.00011304288708484129,0.0,1759204904089896263
0.00011511000091393921,0.0,1759204904109662201
0.00010359900082254529,0.0,1759204904128802566
4.460351537982896e-05,0.0,1759204904150888032
0.00016571115541884874,0.0,1759204904169608701
0.00014914003987696387,0.0,1759204904188584001
8.416975199802753e-05,0.0,1759204904211258559
7.575277679822477e-05,0.0,1759204904228754315
-1.0503131414982145e-05,0.0,1759204904251757195
0.00014112616061635544,0.0,1759204904270000612
-0.00018587556139193314,0.0,1759204904289806704
-0.00016728800525273981,0.0,1759204904308870853
0.00011802101457835727,0.0,1759204904329770539
2.8758018117337557e-05,0.0,1759204904350782744
2.5882216305603804e-05,0.0,1759204904368842843
-0.00015034443460625415,0.0,1759204904390782961
0.00015173579274206943,0.0,1759204904410166674
0.00020039843652332954,0.0,1759204904430089352
0.00017290504569572596,0.0,1759204904451050908
0.00015561454112615337,0.0,1759204904468686826
0.0002296368023422426,0.0,1759204904490330226
0.0001693205932233484,0.0,1759204904509706601
0.00014378734635971384,0.0,1759204904529634274
0.0001966839753072,0.0,1759204904550094648
0.00012315826500139418,0.0,1759204904569957064
-5.5226985173668016e-05,0.0,1759204904590026803
5.936793890539755e-05,0.0,1759204904609628852
-3.7109772414118506e-05,0.0,1759204904630992836
-3.339879517270666e-05,0.0,1759204904648653816
6.182230968872336e-05,0.0,1759204904670050211
-0.00010328927675900897,0.0,1759204904689887208
5.063649909605952e-05,0.0,1759204904709689428
7.854611702225894e-05,0.0,1759204904729748797
-4.260029561608091e-05,0.0,1759204904749925407
6.755455489401183e-05,0.0,1759204904769656818
4.518826685807474e-05,0.0,1759204904789895464
6.95175182647768e-05,0.0,1759204904809625778
2.9708803808188535e-05,0.0,1759204904830000832
6.632260883732645e-05,0.0,1759204904849679149
6.628054550637073e-05,0.0,1759204904870374785
-9.393357839410161e-05,0.0,1759204904890016243
1.266013270017625e-05,0.0,1759204904909757139
1.1394119430158625e-05,0.0,1759204904928627489
-4.52911776717524e-05,0.0,1759204904951406723
5.6709870586581316e-05,0.0,1759204904969706444
0.00011344198671499396,0.0,1759204904989903199
8.276366592248003e-05,0.0,1759204905009731946
7.448729933023204e-05,0.0,1759204905028660834
9.560671588132615e-05,0.0,1759204905050937718
5.756583802314693e-05,0.0,1759204905070036641
0.00011567738296974631,0.0,1759204905089851869
5.4653466599552656e-05,0.0,1759204905109679043
4.918811993959739e-05,0.0,1759204905128655395
5.498310840273662e-05,0.0,1759204905151211914
2.0245275913351933e-05,0.0,1759204905169624120
-5.854981740424688e-05,0.0,1759204905189827925
-1.353425535282019e-05,0.0,1759204905209691057
-1.2180829817538172e-05,0.0,1759204905228929901
-3.412174094651483e-05,0.0,1759204905250911875
2.9046716294695195e-06,0.0,1759204905269638156
-6.720791635037142e-05,0.0,1759204905290607393
8.534809516841422e-06,0.0,1759204905309678431
-0.00013023394208933612,0.0,1759204905329919796
3.9762704683071515e-06,0.0,1759204905349802236
3.165308583289879e-05,0.0,1759204905369929686
-7.280018456049298e-05,0.0,1759204905390445255
-6.552016610444369e-05,0.0,1759204905409001017
2.414836224447791e-05,0.0,1759204905429955348
-1.8619241783160952e-05,0.0,1759204905450938238
-1.6757317604844858e-05,0.0,1759204905468985987
-0.00026496155057416447,0.0,1759204905490425322
1.7027372590817274e-05,0.0,1759204905509664254
7.345720676334145e-05,0.0,1759204905529642616
4.318427043804347e-05,0.0,1759204905551159537
3.8865843394239126e-05,0.0,1759204905568842506
-6.128112555944537e-05,0.0,1759204905590150766
6.536719159757511e-05,0.0,1759204905609679293
8.589931119623166e-05,0.0,1759204905629809011
6.896349106636503e-05,0.0,1759204905651430880
6.206714195972853e-05,0.0,1759204905668603102
-3.4369697885979775e-05,0.0,1759204905689998055
5.899715797299418e-05,0.0,1759204905709802800
5.816134243419657e-06,0.0,1759204905730788935
5.234520819077691e-06,0.0,1759204905748726438
6.035033001770048e-05,0.0,1759204905770130019
-0.00016189267060833401,0.0,1759204905790048982
3.040230006234827e-05,0.0,1759204905809966098
-8.083451327372882e-05,0.0,1759204905831364303
-7.275106194635594e-05,0.0,1759204905848599406
6.830785631861185e-05,0.0,1759204905870013276
-9.544642606499595e-05,0.0,1759204905890127787
4.43447395895405e-05,0.0,1759204905909661271
3.991026563058645e-05,0.0,1759204905928638451
-1.7746840526714814e-06,0.0,1759204905950796979
8.43509351236016e-05,0.0,1759204905970007434
3.962372912135232e-05,0.0,1759204905989889051
7.807725314278345e-05,0.0,1759204906009676397
7.026952782850511e-05,0.0,1759204906028594577
5.3563992078484584e-05,0.0,1759204906050919408
7.504063152419485e-05,0.0,1759204906070033562
3.4135554797418494e-05,0.0,1759204906089886174
5.7779982481927564e-05,0.0,1759204906109882817
-4.543487010108934e-05,0.0,1759204906129898034
4.8446234619771036e-05,0.0,1759204906149691976
5.888181640962295e-05,0.0,1759204906170204520
-4.870429585240515e-05,0.0,1759204906189891229
2.3690765845862407e-05,0.0,1759204906209899754
-5.855890871028038e-05,0.0,1759204906230065294
4.350848249819154e-05,0.0,1759204906249958810
5.60055854631184e-05,0.0,1759204906269977747
2.2187196821806296e-05,0.0,1759204906290184165
4.435020292449507e-05,0.0,1759204906309601493
-3.417705010096538e-05,0.0,1759204906329989383
4.004990963697498e-05,0.0,1759204906349873934
4.8348532952973574e-05,0.0,1759204906370226038
1.5973372944716573e-05,0.0,1759204906389921207
3.908033804326482e-05,0.0,1759204906409964343
-1.5581526474675032e-05,0.0,1759204906430237148
3.196977075192953e-05,0.0,1759204906449727718
3.898277814941616e-05,0.0,1759204906470070013
1.531666763927494e-05,0.0,1759204906489992260
1.3785000875347447e-05,0.0,1759204906508673246
-1.2530030327728456e-05,0.0,1759204906531262844
3.157574798931632e-05,0.0,1759204906549760382
2.841817319038469e-05,0.0,1759204906568944469
-2.0905650250486117e-05,0.0,1759204906590303103
2.957854679829187e-05,0.0,1759204906609955134
-8.292951886445611e-05,0.0,1759204906631269721
3.1063625299640365e-05,0.0,1759204906649726086
2.795726276967633e-05,0.0,1759204906668592599
-0.00012787610894190852,0.0,1759204906690128516
3.599532275676855e-05,0.0,1759204906709623944
-4.7573435978387994e-05,0.0,1759204906730952556
0.2562111576132807,0.0,1759204906749823473
0.23059004185195267,0.0,1759204906768572613
0.2068825090039446,0.0,1759204906789982664
0.3403398183441745,0.0,1759204906810055235
0.3400105449376642,0.0,1759204906830905942
0.3060094904438978,0.0,1759204906848607775
0.2896889949925032,0.0,1759204906870197998
0.25957321728602917,0.0,1759204906890229017
0.28252515670036515,0.0,1759204906909980723
0.26410541647603963,0.0,1759204906930866464
0.23769487482843568,0.0,1759204906948889988
0.3064454336214803,0.0,1759204906970084940
0.27460295274264895,0.0,1759204906989912519
0.30245140029983053,0.0,1759204907010145359
0.2722062602698475,0.0,1759204907028541987
0.2646009895570518,0.0,1759204907050800616
0.24539599678555168,0.0,1759204907069793718
0.22003076333976151,0.0,1759204907089840280
0.2757065664184794,0.0,1759204907109671605
0.2454341670257562,0.0,1759204907130294471
0.2592927419950922,0.0,1759204907149582432
0.23986746414975194,0.0,1759204907169629167
0.21479350200420866,0.0,1759204907190146563
0.19635726873156628,0.0,1759204907209567044
0.17672154185840966,0.0,1759204907228739343
0.21926647137772967,0.0,1759204907252152066
0.2212769239009215,0.0,1759204907270104998
0.19672972960899876,0.0,1759204907290321178
0.1838002020862192,0.0,1759204907309600905
0.16542018187759727,0.0,1759204907328636515
0.2303166381599088,0.0,1759204907351635961
0.22709346861351842,0.0,1759204907369962557
0.2011685909664958,0.0,1759204907389820589
0.18936029661523732,0.0,1759204907409747776
0.1704242669537136,0.0,1759204907428607558
-0.034859916696682286,0.0,1759204907451262708
-0.07074953719429516,0.0,1759204907469654262
-0.0672004424464843,0.0,1759204907489970669
-0.029445646306673318,0.0,1759204907509659647
-0.026501081676005987,0.0,1759204907528583311
0.04421349809516689,0.0,1759204907551587043
0.06130639095887208,0.0,1759204907570123713
0.05197852632864001,0.0,1759204907590134443
0.04678067369577601,0.0,1759204907608659335
0.044191736626159606,0.0,1759204907631019738
0.14149463614083752,0.0,1759204907649758883
0.12734517252675376,0.0,1759204907668983419
0.13125294524072922,0.0,1759204907691416209
0.1181276507166563,0.0,1759204907708618339
0.1558764719677213,0.0,1759204907730682201
0.19527719364374269,0.0,1759204907750943493
0.17574947427936843,0.0,1759204907769031885
0.14797995569188777,0.0,1759204907790389728
0.2490796061433007,0.0,1759204907809648906
0.2500458394068985,0.0,1759204907829695480
0.272446891751958,0.0,1759204907851420513
0.24520220257676223,0.0,1759204907868617908
0.2109414809438684,0.0,1759204907890545039
0.2595261405915339,0.0,1759204907909903925
0.24947741129600937,0.0,1759204907929692943
0.21635370767751885,0.0,1759204907950429389
0.2518363231187451,0.0,1759204907969804205
0.21427800658224547,0.0,1759204907990160746
0.2620023994669949,0.0,1759204908009697429
0.2514108378217359,0.0,1759204908029810651
0.21653499092256356,0.0,1759204908049888090
0.25008587509568886,0.0,1759204908070383962
0.2113026766915203,0.0,1759204908090134066
0.260700304025759,0.0,1759204908109610008
0.2504230049187429,0.0,1759204908129961793
0.21464055395995377,0.0,1759204908150009538
0.2393575345419264,0.0,1759204908170152351
0.20322404876330868,0.0,1759204908189865762
0.23617744063514504,0.0,1759204908209965821
0.21255969657163054,0.0,1759204908228746965
0.24156336661382616,0.0,1759204908251309896
0.24251480378419313,0.0,1759204908270008345
0.20955655835007828,0.0,1759204908289853805
0.23708858734235358,0.0,1759204908309729281
0.2133797286081182,0.0,1759204908328587926
0.2412589533277138,0.0,1759204908351181285
0.24162742430532405,0.0,1759204908369815313
0.20815321873959253,0.0,1759204908390189633
0.23561663818684236,0.0,1759204908410363109
0.21205497436815812,0.0,1759204908428613059
0.2453106487960351,0.0,1759204908451277889
0.23767285734238167,0.0,1759204908470532626
0.20293659413398224,0.0,1759204908489895010
0.2694989773170515,0.0,1759204908509676478
0.24254907958534638,0.0,1759204908529069873
0.2916127758888303,0.0,1759204908550964952
0.2832121487859984,0.0,1759204908569685795
0.24368122242514623,0.0,1759204908589936418
0.2694372791959907,0.0,1759204908610097736
0.24249355127639163,0.0,1759204908628719572
0.2752612404559988,0.0,1759204908650821516
0.2652372523173966,0.0,1759204908670089200
0.22644846807913988,0.0,1759204908689894049
0.2038036212712259,0.0,1759204908708556869
0.21307547506965202,0.0,1759204908731436182
0.2753480599300164,0.0,1759204908749919318
0.24781325393701475,0.0,1759204908768961251
0.23004797178533978,0.0,1759204908790904126
0.2070431746068058,0.0,1759204908808687004
0.22775833836091158,0.0,1759204908829668615
0.24978883307186658,0.0,1759204908851171569
0.22480994976467994,0.0,1759204908868940651
0.17503989124008557,0.0,1759204908890591757
0.2463243886299174,0.0,1759204908909679289
0.24135024263097143,0.0,1759204908929688001
0.25893705200283706,0.0,1759204908951291774
0.23304334680255337,0.0,1759204908968919599
0.1839005818636362,0.0,1759204908990987977
0.2536025701572145,0.0,1759204909009716838
0.24714644306203107,0.0,1759204909029979221
0.20012769900594016,0.0,1759204909049958892
0.2467180449775646,0.0,1759204909070074425
0.19176016367108384,0.0,1759204909090233249
0.2578826416150178,0.0,1759204909109829226
0.2518882725351186,0.0,1759204909129655173
0.20343891331380998,0.0,1759204909149868158
0.25493115680545814,0.0,1759204909170344056
0.20379995375656032,0.0,1759204909190275895
0.2528456618073121,0.0,1759204909209688159
0.2275610956265809,0.0,1759204909228972896
0.2534747094096303,0.0,1759204909250888699
0.26120911209336506,0.0,1759204909269595360
0.21715439238574924,0.0,1759204909289919754
0.2519473845641755,0.0,1759204909309693644
0.22675264610775794,0.0,1759204909328683479
0.2115499326984963,0.0,1759204909350937497
0.20911658019854595,0.0,1759204909370046855
0.16972826079612163,0.0,1759204909389876866
0.1687370601853592,0.0,1759204909409789463
0.09485476212101825,0.0,1759204909430033585
0.18443453398752488,0.0,1759204909449884494
0.18352429107581056,0.0,1759204909469994622
0.14486721793973617,0.0,1759204909489881899
0.14910597522477295,0.0,1759204909509972050
0.13419537770229567,0.0,1759204909528599017
0.15851791985068026,0.0,1759204909551415827
0.1619061905931586,0.0,1759204909569606502
0.12518100134354007,0.0,1759204909589863329
0.13178888198204736,0.0,1759204909609852039
0.11860999378384263,0.0,1759204909628619654
0.10376111187606633,0.0,1759204909650819698
0.10334693798597551,0.0,1759204909670028581
0.07140059843897442,0.0,1759204909689883795
0.06426053859507698,0.0,1759204909708588925
0.0762319259057122,0.0,1759204909729662473
0.06273019927952801,0.0,1759204909750834344
0.05645717935157521,0.0,1759204909768602989
0.007488515245665732,0.0,1759204909790183880
0.007741841019463229,0.0,1759204909809665614
0.007192365819650207,0.0,1759204909829907084
-0.04020130089476273,0.0,1759204909852052468
-0.03618117080528646,0.0,1759204909868637565
-0.0720066033870993,0.0,1759204909890538832
-0.03773631140196615,0.0,1759204909909862604
-0.027813870929218804,0.0,1759204909929723342
-0.07108495161771118,0.0,1759204909951091043
-0.06397645645594006,0.0,1759204909968730713
-0.09929656210957227,0.0,1759204909990237938
-0.06051304678384016,0.0,1759204910009780514
-0.04787125010290943,0.0,1759204910029792573
-0.07655711267202321,0.0,1759204910050042547
-0.08451733891373368,0.0,1759204910069588764
-0.1197115193728362,0.0,1759204910090674270
-0.07700987052839078,0.0,1759204910109744379
-0.06262201324827026,0.0,1759204910130096084
-0.0916483379691314,0.0,1759204910149943757
-0.051553827161580995,0.0,1759204910169597345
-0.0824621026775604,0.0,1759204910189957656
-0.08304849839848585,0.0,1759204910210065151
-0.07474364855863727,0.0,1759204910228714290
-0.09081968586551235,0.0,1759204910251057499
-0.06522482707246319,0.0,1759204910269623779
-0.08369769584946231,0.0,1759204910289858822
-0.05547193673559726,0.0,1759204910309712600
-0.12279014042754131,0.0,1759204910330394818
0.007678712154079406,0.0,1759204910349729917
0.027151085401806472,0.0,1759204910369676463
-0.0015124175064739134,0.0,1759204910389852273
0.021330486385195847,0.0,1759204910410427144
-0.05367461344950211,0.0,1759204910429956282
0.06558270026292007,0.0,1759204910449684807
0.0786914958998431,0.0,1759204910470423184
0.044635272072285744,0.0,1759204910490142796
0.10139111991191235,0.0,1759204910509639252
0.021699205525630483,0.0,1759204910530131877
0.15331174392379626,0.0,1759204910549723441
0.16097443635381695,0.0,1759204910569797283
0.11785239099195713,0.0,1759204910589946952
0.1682468625952903,0.0,1759204910609678707
0.07819343404356432,0.0,1759204910629968691
0.15948987740237044,0.0,1759204910649622555
0.1588280364549251,0.0,1759204910669930894
0.11541290571505669,0.0,1759204910689823538
0.17378558404730138,0.0,1759204910709629442
0.10234033306235704,0.0,1759204910729899409
0.18084366148413367,0.0,1759204910749724569
0.1832583361634405,0.0,1759204910769683348
0.14344802111805866,0.0,1759204910789806279
0.1291032190062528,0.0,1759204910808550297
0.0904625539621064,0.0,1759204910831754942
0.1779861007237395,0.0,1759204910850270632
0.16018749065136556,0.0,1759204910868671783
0.18958840250665204,0.0,1759204910891115143
0.17062956225598686,0.0,1759204910908607058
0.13935228543235895,0.0,1759204910930902277
0.21421149523691851,0.0,1759204910949646429
0.19279034571322667,0.0,1759204910968682103
0.12254944038705232,0.0,1759204910990379976
0.17644605216538833,0.0,1759204911009593312
0.13346212896301093,0.0,1759204911030887754
0.20355699745833278,0.0,1759204911049848640
0.18320129771249952,0.0,1759204911068641958
0.11309952992109082,0.0,1759204911090251146
0.16694023375967648,0.0,1759204911109642917
0.1249048291371781,0.0,1759204911131654524
0.11241434622346029,0.0,1759204911148673323
0.13578676867989245,0.0,1759204911169871037
0.0654943721649226,0.0,1759204911190175199
0.11228949232455279,0.0,1759204911209655272
0.07281994804707108,0.0,1759204911231736403
0.06553795324236397,0.0,1759204911248719226
0.1395712156415964,0.0,1759204911270164248
0.07985379772713488,0.0,1759204911289849897
0.11662661085827922,0.0,1759204911309666526
0.0066555210490979455,0.0,1759204911330256606
0.09785227927193003,0.0,1759204911350086304
0.1138212315731717,0.0,1759204911369759042
0.07127264498070843,0.0,1759204911389890783
0.08968356774248906,0.0,1759204911410053179
-0.01328785438656524,0.0,1759204911430045319
0.12029019993124052,0.0,1759204911449920351
0.13149422585712361,0.0,1759204911469912929
0.08593716987623268,0.0,1759204911490248572
0.1443739885002278,0.0,1759204911509633769
0.12993658965020505,0.0,1759204911528594569
0.2105557150375839,0.0,1759204911550871159
0.22590839924577572,0.0,1759204911569594367
0.17056782277344645,0.0,1759204911589870045
0.2229307494131633,0.0,1759204911609785571
0.20063767447184697,0.0,1759204911628626332
0.27470980918317034,0.0,1759204911651023781
0.28465199829562315,0.0,1759204911669633111
0.22271459478085678,0.0,1759204911689896741
0.2713908204414451,0.0,1759204911709594863
0.24425173839730058,0.0,1759204911728638660
0.2979666745347144,0.0,1759204911751652448
0.3037664188836483,0.0,1759204911770100510
0.23889832574932895,0.0,1759204911789858175
0.297219039202667,0.0,1759204911809604728
0.2674971352824003,0.0,1759204911828665589
0.28253015142889576,0.0,1759204911851091761
0.28284437129034634,0.0,1759204911870385984
0.22770283030590305,0.0,1759204911890248184
0.20493254727531274,0.0,1759204911908591687
0.25388995759187866,0.0,1759204911929865021
0.27186179204215394,0.0,1759204911950753846
0.24467561283793854,0.0,1759204911968824959
0.14982617228542877,0.0,1759204911990047782
0.22131192928074594,0.0,1759204912009895075
0.21933180499092875,0.0,1759204912029686284
0.23106986505173482,0.0,1759204912051273440
0.20796287854656134,0.0,1759204912068710838
0.12209386050123414,0.0,1759204912090192088
0.18818364733696114,0.0,1759204912109700845
0.136522729983079,0.0,1759204912131108099
0.12287045698477109,0.0,1759204912148534600
0.1929358934475892,0.0,1759204912170053661
0.10137817266297214,0.0,1759204912189938981
0.21234620705486423,0.0,1759204912209725094
0.2185400275224903,0.0,1759204912230028353
0.14237723817090814,0.0,1759204912250077227
0.23172891415633892,0.0,1759204912269608755
0.15183037355154239,0.0,1759204912289827953
0.1918915006371147,0.0,1759204912309622725
0.17270235057340322,0.0,1759204912328610395
0.22027901244914844,0.0,1759204912351032676
0.2575738943555778,0.0,1759204912369673148
0.1933421701512311,0.0,1759204912390733434
0.2514257026279729,0.0,1759204912409777361
0.1072713639619674,0.0,1759204912429792010
0.25739251155779685,0.0,1759204912449867930
0.27565737568888815,0.0,1759204912470092536
0.20803956431161294,0.0,1759204912489939054
0.28426459648441643,0.0,1759204912510083810
0.2558381368359748,0.0,1759204912528615599
0.3132903512762423,0.0,1759204912551126850
0.3446553065997637,0.0,1759204912569986244
0.2691511950015083,0.0,1759204912589836835
0.2822568444030923,0.0,1759204912609646258
0.1326367638230066,0.0,1759204912630174121
0.2844940817620887,0.0,1759204912649783408
0.2843280882800623,0.0,1759204912669972780
0.21209780127519767,0.0,1759204912689946439
0.22769993102869945,0.0,1759204912710040596
0.2049299379258295,0.0,1759204912728650269
0.2585241191709811,0.0,1759204912751380666
0.27144790965309096,0.0,1759204912769893090
0.20085103829207387,0.0,1759204912790183305
0.2590017140675991,0.0,1759204912809642612
0.23310154266083918,0.0,1759204912828700049
0.2191330381776403,0.0,1759204912850924260
0.22186179131772107,0.0,1759204912869650063
0.15534953746781216,0.0,1759204912889906988
0.21328984432072245,0.0,1759204912909628900
0.19196085988865022,0.0,1759204912928555612
0.2187062233260006,0.0,1759204912952138561
0.23186850989545782,0.0,1759204912970003946
0.1629354096955524,0.0,1759204912990174061
0.14664186872599716,0.0,1759204913009027930
0.13518808851270922,0.0,1759204913030000250
0.09881291225790187,0.0,1759204913050688732
0.10547475383405767,0.0,1759204913069734720
0.05933864282352566,0.0,1759204913089981335
0.0534047785411731,0.0,1759204913108633701
0.11894600730304043,0.0,1759204913129909478
0.10402507340214308,0.0,1759204913150796653
0.11464168192846814,0.0,1759204913169962748
0.06727969347869679,0.0,1759204913189894380
0.060551724130827114,0.0,1759204913208657822
0.04669298578298819,0.0,1759204913229786929
0.01725606835151932,0.0,1759204913251117813
0.015530461516367389,0.0,1759204913268591170
-0.07800855348001591,0.0,1759204913290741876
-0.021986134817839564,0.0,1759204913309707068
-0.008919375152397897,0.0,1759204913329751013
-0.06207527937476883,0.0,1759204913350766999
-0.055867751437291946,0.0,1759204913368602127
-0.1358013103928434,0.0,1759204913390096221
-0.05067340183358578,0.0,1759204913409767010
-0.09458944322423363,0.0,1759204913431302075
-0.08513049890181026,0.0,1759204913448675103
-0.023734673863490117,0.0,1759204913470172022
-0.11513015073602267,0.0,1759204913489929612
-0.06228382877251753,0.0,1759204913509581186
-0.04663977483395753,0.0,1759204913529699703
-0.11079036669393988,0.0,1759204913549919895
-0.03956885973743618,0.0,1759204913569609534
-0.10783236909728586,0.0,1759204913590133548
0.0003694585317123855,0.0,1759204913609678085
0.00033251267854114697,0.0,1759204913628594683
-0.004763959745281128,0.0,1759204913651912259
0.04480507171293261,0.0,1759204913669615316
-0.009366446412137158,0.0,1759204913689882383
0.03322820043600494,0.0,1759204913709972424
-0.1185958754662258,0.0,1759204913730200740
0.08080050284984035,0.0,1759204913749603450
0.10446662239915835,0.0,1759204913769822093
0.04190001912544219,0.0,1759204913789891784
0.08190161777877711,0.0,1759204913809644048
-0.06386741311671457,0.0,1759204913830087060
0.07355231527083535,0.0,1759204913850074443
0.08986232748490547,0.0,1759204913869633723
0.03029278761565661,0.0,1759204913890207351
0.0689648624359597,0.0,1759204913909599379
0.06206837619236373,0.0,1759204913928610156
0.12850246311393454,0.0,1759204913950914787
0.15763055414072868,0.0,1759204913969692268
0.08991868421082996,0.0,1759204913989946434
0.12715469658662912,0.0,1759204914009934462
0.11443922692796621,0.0,1759204914028635022
0.053508063467895724,0.0,1759204914050883242
0.06480461705636055,0.0,1759204914069915406
0.006229920512538192,0.0,1759204914090132871
0.08082369860134082,0.0,1759204914110110837
-0.07356048840789546,0.0,1759204914130025991
0.1334332797114111,0.0,1759204914149637531
0.15434760632504319,0.0,1759204914169817237
0.08551276169398805,0.0,1759204914190008937
0.07696148552458926,0.0,1759204914208648732
0.02144707047146184,0.0,1759204914230930057
0.1641810368823446,0.0,1759204914249650655
0.14776293319411013,0.0,1759204914268625374
0.17665467946502017,0.0,1759204914290998077
0.15898921151851816,0.0,1759204914308592618
0.1080769962484737,0.0,1759204914331474289
0.1763544097835516,0.0,1759204914349741391
0.15871896880519645,0.0,1759204914368575587
0.04618353581607179,0.0,1759204914390054688
0.13614150982173912,0.0,1759204914410352248
0.14565572010303823,0.0,1759204914429860624
0.11970871783707587,0.0,1759204914450889714
0.1077378460533683,0.0,1759204914468609627
-0.00023977946790534888,0.0,1759204914490083221
0.18310566472902318,0.0,1759204914509785456
0.13027753309315915,0.0,1759204914531215539
0.11724977978384324,0.0,1759204914548622224
0.1380408063178457,0.0,1759204914570098533
0.04358779365611118,0.0,1759204914590400787
0.09956961956775313,0.0,1759204914610063488
0.04212228561862088,0.0,1759204914630723861
0.03791005705675879,0.0,1759204914648631995
0.13762083390240434,0.0,1759204914669920825
0.04432482804874614,0.0,1759204914690392695
0.07504823443880212,0.0,1759204914709644773
-0.11191491875538123,0.0,1759204914730242096
0.10940823115927069,0.0,1759204914749684212
0.13459281851475058,0.0,1759204914769687996
0.0618144708674875,0.0,1759204914789943599
0.10417976087967397,0.0,1759204914810417421
-0.06110636808294653,0.0,1759204914830880625
0.13261031402603718,0.0,1759204914849832041
0.1512821744845325,0.0,1759204914869607459
0.08033441229351834,0.0,1759204914890477399
0.09533084865888958,0.0,1759204914910191855
-0.0722197031231936,0.0,1759204914930239419
0.10156702740508074,0.0,1759204914950153579
0.12137976930174134,0.0,1759204914970209401
0.05180339099507559,0.0,1759204914990077554
0.06901891997483896,0.0,1759204915009656539
-0.09244750104181544,0.0,1759204915030204367
0.056455309884437546,0.0,1759204915049596426
0.07456052564305618,0.0,1759204915069665926
0.009191434981063229,0.0,1759204915089969986
0.053803996901897314,0.0,1759204915109703009
-0.1069826339776149,0.0,1759204915130293497
0.007503345983599988,0.0,1759204915149579007
0.024510044868816933,0.0,1759204915169700179
-0.0363774232181983,0.0,1759204915189851706
-0.03273968089637847,0.0,1759204915208795528
-0.08977088869406982,0.0,1759204915230933289
-0.02211846399964875,0.0,1759204915250088657
-0.019906617599683877,0.0,1759204915268914213
-0.03464878485358697,0.0,1759204915290791305
-0.03118390636822827,0.0,1759204915308890922
-0.004586620131387834,0.0,1759204915329974017
0.02412957480828474,0.0,1759204915350938951
0.021716617327456264,0.0,1759204915368602937
-0.0855770648622908,0.0,1759204915390139817
-0.003678525763820245,0.0,1759204915409712445
-0.06814066694290766,0.0,1759204915430780838
-0.03468670281096129,0.0,1759204915450174748
-0.031218032529865162,0.0,1759204915468746168
-0.13422653651816793,0.0,1759204915490148533
-0.02882724563844072,0.0,1759204915509693755
-0.08604932773331253,0.0,1759204915531108719
-0.07744439495998127,0.0,1759204915548603466
-0.0835228294837009,0.0,1759204915569865199
-0.1878471351654079,0.0,1759204915590082563
-0.17649663792257825,0.0,1759204915609910693
-0.16059544547490434,0.0,1759204915629701753
-0.22788453555525867,0.0,1759204915650159645
-0.13735876665439659,0.0,1759204915669644307
-0.20936437955574633,0.0,1759204915690472166
-0.15640506123242284,0.0,1759204915709882219
-0.1298574071070361,0.0,1759204915730094648
-0.19079144426385125,0.0,1759204915749958295
-0.2477250789798053,0.0,1759204915769652142
-0.3075983241438513,0.0,1759204915789898632
-0.2727670181853851,0.0,1759204915809696560
-0.24549031636684662,0.0,1759204915828977054
-0.3062172776794911,0.0,1759204915851002651
-0.2465519338680749,0.0,1759204915869969404
-0.2819416368453669,0.0,1759204915889894475
-0.27177391551920943,0.0,1759204915909866608
-0.24459652396728848,0.0,1759204915928616174
-0.34393412001741896,0.0,1759204915951517206
-0.29897958454290646,0.0,1759204915970175555
-0.3277522681896188,0.0,1759204915989830820
-0.33085418181679105,0.0,1759204916009660300
-0.29776876363511195,0.0,1759204916028682919
-0.3581748696959247,0.0,1759204916050751822
-0.30845965486551186,0.0,1759204916069655775
-0.3372574116105644,0.0,1759204916089966331
-0.33502973551001386,0.0,1759204916109724383
-0.30152676195901246,0.0,1759204916128592277
-0.47925911523613884,0.0,1759204916151094444
-0.44511386942013775,0.0,1759204916170044517
-0.45987169401967265,0.0,1759204916190079053
-0.4477323054327838,0.0,1759204916209990566
-0.40295907488950544,0.0,1759204916228984730
-0.5125882521409693,0.0,1759204916251580048
-0.47555838801805894,0.0,1759204916269605599
-0.4718680820370732,0.0,1759204916289855850
-0.4246812738333659,0.0,1759204916308930651
-0.4386632344297777,0.0,1759204916329766099
-0.5605608353042468,0.0,1759204916350808833
-0.5045047517738221,0.0,1759204916368565429
-0.5601096106976491,0.0,1759204916390718333
-0.567700454324344,0.0,1759204916410014894
-0.5254701655979115,0.0,1759204916430100578
-0.6197094292404127,0.0,1759204916450972262
-0.5577384863163715,0.0,1759204916468693410
-0.595694046197571,0.0,1759204916490838844
-0.5540839631334465,0.0,1759204916509576241
-0.5025889397324299,0.0,1759204916529652057
-0.5550481654965269,0.0,1759204916550841991
-0.49954334894687424,0.0,1759204916568637248
-0.5436328140312705,0.0,1759204916590103369
-0.5540885212280698,0.0,1759204916609912955
-0.584855185792845,0.0,1759204916630744031
-0.5263696672135605,0.0,1759204916648604243
-0.4685098389050128,0.0,1759204916669962861
-0.49966781789656073,0.0,1759204916689794965
-0.43671788979665543,0.0,1759204916709662617
-0.3930461008169899,0.0,1759204916728618992
-0.4668215895497405,0.0,1759204916750973396
-0.4079966581837696,0.0,1759204916769774662
-0.4179157164233781,0.0,1759204916789909608
-0.3408587483714243,0.0,1759204916809669309
-0.3067728735342819,0.0,1759204916828706492
-0.3381725483407076,0.0,1759204916851008202
-0.2805647063366852,0.0,1759204916869656967
-0.3006279063086923,0.0,1759204916889864989
-0.23468060584007827,0.0,1759204916909936312
-0.21121254525607044,0.0,1759204916928609799
-0.21225742139423276,0.0,1759204916951160658
-0.15521911592852755,0.0,1759204916969774901
-0.1868269326944032,0.0,1759204916989988987
-0.12971189628665297,0.0,1759204917009650578
-0.11674070665798768,0.0,1759204917028960810
-0.12587491416573393,0.0,1759204917051393838
-0.07727406741769471,0.0,1759204917069725956
-0.11511937351495766,0.0,1759204917090136479
-0.06582887549779712,0.0,1759204917109753767
-0.05924598794801741,0.0,1759204917128623375
-0.0651863974137835,0.0,1759204917150901856
-0.03505234898301507,0.0,1759204917169628060
-0.07760027150333629,0.0,1759204917190340429
0.006058309781029267,0.0,1759204917209816279
0.00545247880292634,0.0,1759204917228563102
0.012133462402479851,0.0,1759204917250890112
0.03623298819381573,0.0,1759204917269583470
-0.012820801459245891,0.0,1759204917289859162
0.06150559829664319,0.0,1759204917309886008
0.055355038466978874,0.0,1759204917328833289
0.057433961703375766,0.0,1759204917350883895
0.07649545880501053,0.0,1759204917369563212
0.02410737206235921,0.0,1759204917389886016
0.02169663485612329,0.0,1759204917408649288
0.05904066458992642,0.0,1759204917430062606
0.08328442737534802,0.0,1759204917450761346
0.07495598463781322,0.0,1759204917468613989
0.07367490028727867,0.0,1759204917491282715
0.0663074102585508,0.0,1759204917508631496
0.08119699837902815,0.0,1759204917530300973
0.10675535797386101,0.0,1759204917551084094
0.09607982217647491,0.0,1759204917568595145
0.012102124164203004,0.0,1759204917590897177
0.15055714787399188,0.0,1759204917609668915
0.10654386784855509,0.0,1759204917631093669
0.1567439752541108,0.0,1759204917649977431
0.1410695777286997,0.0,1759204917668853323
0.05061807202881802,0.0,1759204917690186764
0.12166574598428173,0.0,1759204917710062284
0.12747943086803498,0.0,1759204917729634522
0.05560411609185826,0.0,1759204917750170670
0.10155492667399896,0.0,1759204917770097465
0.010365547051502347,0.0,1759204917790093186
0.08426979016360954,0.0,1759204917809687465
0.09274271700486472,0.0,1759204917829843827
0.024215465983098997,0.0,1759204917849998965
0.07758177754931969,0.0,1759204917869579625
0.008420040283080112,0.0,1759204917890006664
0.01966642727616391,0.0,1759204917909908551
0.01769978454854752,0.0,1759204917928583344
-0.013169227685937888,0.0,1759204917951036081
0.018624118835194207,0.0,1759204917969813947
-0.024154630951748482,0.0,1759204917989996840
0.011717176325627653,0.0,1759204918009585580
0.010545458693064887,0.0,1759204918028619962
-0.04676924009349538,0.0,1759204918050808654
-0.024895333566001793,0.0,1759204918069945665
-0.06203570876031106,0.0,1759204918089841438
-0.06423475931380837,0.0,1759204918109820108
-0.17374047442766452,0.0,1759204918130329519
-0.11285564464552936,0.0,1759204918150212079
-0.09372349299924959,0.0,1759204918169630743
-0.1252374321499074,0.0,1759204918189848405
-0.12083014045357407,0.0,1759204918210309026
-0.10874712640821667,0.0,1759204918228613028
-0.16610531379708587,0.0,1759204918251059392
-0.13956784159401736,0.0,1759204918269651258
-0.1633386464546845,0.0,1759204918289884434
-0.15818193704023772,0.0,1759204918309578518
-0.14236374333621396,0.0,1759204918328772478
-0.18257500580548183,0.0,1759204918350972549
-0.15385225915814454,0.0,1759204918369706822
-0.17779258281506108,0.0,1759204918389795908
-0.16857775357027477,0.0,1759204918409862767
-0.25520738915094077,0.0,1759204918430267170
-0.1969968544625072,0.0,1759204918449886227
-0.17156580588899292,0.0,1759204918469723543
-0.19232097334227505,0.0,1759204918489947169
-0.18414581794250945,0.0,1759204918509683569
-0.16573123614825852,0.0,1759204918528631458
-0.1730239418817024,0.0,1759204918551617211
-0.14134269582894765,0.0,1759204918570200292
-0.16525260832445166,0.0,1759204918589853948
-0.1487273474920065,0.0,1759204918608550923
-0.2445440139166399,0.0,1759204918631230431
-0.22511652930838785,0.0,1759204918649718076
-0.20260487637754906,0.0,1759204918668576332
-0.24049165298052966,0.0,1759204918690923836
-0.2164424876824767,0.0,1759204918708613406
-0.23803205334977695,0.0,1759204918731095057
-0.2189097618673027,0.0,1759204918749811500
-0.19701878568057243,0.0,1759204918768631762
-0.24074303310555556,0.0,1759204918790110164
-0.25530639066821864,0.0,1759204918809547339
-0.28438967898925416,0.0,1759204918831238369
-0.26626912443841305,0.0,1759204918850253626
-0.23964221199457175,0.0,1759204918868593932
-0.2775847604252477,0.0,1759204918890139701
-0.24683064349940584,0.0,1759204918909588510
-0.268453682196227,0.0,1759204918930701556
-0.24160831397660432,0.0,1759204918948925895
-0.22367448628561123,0.0,1759204918969713712
-0.26480102270134837,0.0,1759204918989854567
-0.22189640451955456,0.0,1759204919009630184
-0.24019172206206646,0.0,1759204919031010259
-0.21617254985585982,0.0,1759204919048896299
-0.2015185120111221,0.0,1759204919070507912
-0.23167383969838418,0.0,1759204919089853806
-0.21646554479741648,0.0,1759204919109658619
-0.29788794622779435,0.0,1759204919130140867
-0.28066406240551495,0.0,1759204919149637884
-0.2559759090871005,0.0,1759204919169977134
-0.26176632503994557,0.0,1759204919189985956
-0.25370511806878215,0.0,1759204919209826422
-0.32077591024059915,0.0,1759204919229980693
-0.27063847743750147,0.0,1759204919250122125
-0.2402677690154988,0.0,1759204919269797256
-0.24759268844781918,0.0,1759204919289811663
-0.20212478064192024,0.0,1759204919309848844
-0.26475512066576634,0.0,1759204919329986819
-0.2554442163157248,0.0,1759204919350264518
-0.23302645145609932,0.0,1759204919369639834
-0.23882496088036106,0.0,1759204919390125270
-0.2341463922091182,0.0,1759204919410125959
-0.2901999776910906,0.0,1759204919430166230
-0.20698599489562935,0.0,1759204919449669428
-0.17682630062381333,0.0,1759204919469600837
-0.18756902081984,0.0,1759204919489825597
-0.1476415283876166,0.0,1759204919509740142
-0.20751314552061,0.0,1759204919530393448
-0.25467396065118614,0.0,1759204919550570520
-0.24144508721057045,0.0,1759204919570208468
-0.2453827821874438,0.0,1759204919589876643
-0.20783505092416965,0.0,1759204919609738478
-0.25831073260360893,0.0,1759204919630274941
-0.16718477571453855,0.0,1759204919649715149
-0.13924562918942954,0.0,1759204919669851409
-0.15117730036663285,0.0,1759204919690090322
-0.13605957032996957,0.0,1759204919708643170
-0.2461411215342172,0.0,1759204919731456520
-0.20830682120533356,0.0,1759204919749949666
-0.1874761390848002,0.0,1759204919768834439
-0.17855266755765078,0.0,1759204919790860338
-0.16069740080188571,0.0,1759204919808653290
-0.13548763010906736,0.0,1759204919829881285
-0.6436134973864107,0.0,1759204919851156045
-0.5792521476477697,0.0,1759204919868936212
-0.5623203428288975,0.0,1759204919890868969
-0.6194653055480908,0.0,1759204919910193959
-0.5827081994346173,0.0,1759204919930306815
-0.5436143127807586,0.0,1759204919950870953
-0.4892528815026827,0.0,1759204919968668050
-0.4794189418066588,0.0,1759204919990312348
-0.39689321244553555,0.0,1759204920009811371
-0.3491584309591154,0.0,1759204920029638689
-0.3439036617033741,0.0,1759204920050540908
-0.2835258559593686,0.0,1759204920069694074
-0.2943708682097551,0.0,1759204920089863633
-0.22852782252491805,0.0,1759204920109707104
-0.28343631581042883,0.0,1759204920129825743
-0.18742454624872124,0.0,1759204920149646361
-0.1507234312776083,0.0,1759204920169683574
-0.1561558337896769,0.0,1759204920189942355
-0.12304443793860594,0.0,1759204920209827023
-0.11073999414474535,0.0,1759204920228594677
-0.10721078442206088,0.0,1759204920251028242
-0.08194981676246671,0.0,1759204920269638493
-0.09181833523037296,0.0,1759204920289887081
-0.06769944988601428,0.0,1759204920309643532
-0.060929504897412855,0.0,1759204920328630329
-0.06249810429446696,0.0,1759204920350927829
-0.04288635842716637,0.0,1759204920369561295
-0.055095058163848264,0.0,1759204920390943541
-0.03515937672864806,0.0,1759204920409679373
-0.031643439055783255,0.0,1759204920428627039
-0.03572088077854772,0.0,1759204920451142905
-0.019519878170515814,0.0,1759204920469638266
-0.03362508423362425,0.0,1759204920489919343
-0.017216451430181565,0.0,1759204920509881000
-0.01549480628716341,0.0,1759204920528586610
-0.017884704621602972,0.0,1759204920550848740
-0.00797683035165962,0.0,1759204920569731906
-0.022944662359245003,0.0,1759204920590132370
-0.007679869247017907,0.0,1759204920609601216
-0.047979256396141104,0.0,1759204920629918972
-0.004518444914400954,0.0,1759204920649959171
0.0028073923923899935,0.0,1759204920670157998
-0.011975961422124919,0.0,1759204920690617073
-0.010778365279912426,0.0,1759204920708621394
0.003048521660884077,0.0,1759204920729956758
-0.0009444633494442491,0.0,1759204920750873645
-0.0008500170144998242,0.0,1759204920768577685
-0.0019223531229681937,0.0,1759204920791321584
-0.0017301178106713744,0.0,1759204920808715645
0.0045860956474991395,0.0,1759204920830012482
0.0016074751991207482,0.0,1759204920850960453
0.0014467276792086735,0.0,1759204920868874762
-0.022220896502151852,0.0,1759204920890196653
0.003756195257472665,0.0,1759204920909610571
0.008643319003190365,0.0,1759204920930035540
0.0051316290220957085,0.0,1759204920950844608
0.004618466119886137,0.0,1759204920968976772
-0.017638238122233293,0.0,1759204920990332125
0.006452367027148138,0.0,1759204921009602247
0.010771226811281762,0.0,1759204921029800828
0.007261181911638985,0.0,1759204921051314929
0.0065350637204750865,0.0,1759204921069060546
-0.015156308888714543,0.0,1759204921090097058
0.0069447584393949515,0.0,1759204921109750883
0.011015159418686998,0.0,1759204921129677377
-0.005884532374234993,0.0,1759204921150124994
0.009692824627512607,0.0,1759204921169854619
-0.007712326989382902,0.0,1759204921190014945
0.0064488350869886584,0.0,1759204921209698149
0.005803951578289793,0.0,1759204921228588217
0.0013923065278892495,0.0,1759204921250918308
0.010381795866325837,0.0,1759204921269593932
-0.0009512821165416508,0.0,1759204921289932700
0.007886243061438421,0.0,1759204921309713417
-0.02275977437782194,0.0,1759204921329880780
0.005262272570431645,0.0,1759204921349636135
0.011765233074031762,0.0,1759204921369715117
0.0010422232063950852,0.0,1759204921389995600
0.00860836277737746,0.0,1759204921410223739
0.007747526499639714,0.0,1759204921428723365
0.0028787083155050056,0.0,1759204921450979372
0.009622434475989563,0.0,1759204921469656888
-0.00014466809727214577,0.0,1759204921490423457
0.007516021820642776,0.0,1759204921509611512
0.006764419638578499,0.0,1759204921528669475
0.00392077949764467,0.0,1759204921551277061
0.00816923251757396,0.0,1759204921569979771
-0.0013978493169022445,0.0,1759204921590252294
0.006013301376367337,0.0,1759204921609598796
0.005411971238730604,0.0,1759204921628578657
0.00336845872494816,0.0,1759204921651079393
0.007092212997042048,0.0,1759204921670038798
-0.0020021545713347173,0.0,1759204921690140564
-0.0018019391142012457,0.0,1759204921708693467
0.00559885741505617,0.0,1759204921729742346
0.0030141007032856377,0.0,1759204921751127516
0.002712690632957074,0.0,1759204921768587512
0.22123532343530172,0.0,1759204921790845289
0.19911179109177155,0.0,1759204921808647494
0.2354858498232884,0.0,1759204921830154931
0.23341760327155847,0.0,1759204921850875934
0.21007584294440262,0.0,1759204921868588278
0.1758364273953666,0.0,1759204921890685423
0.2705052700056926,0.0,1759204921909579745
0.2563493466304555,0.0,1759204921931510127
0.3871188448846905,0.0,1759204921949870674
0.3484069603962215,0.0,1759204921968600813
0.299852110466936,0.0,1759204921990319696
0.3671465539814993,0.0,1759204922009726851
0.3525533118639815,0.0,1759204922029702081
0.3065947511814435,0.0,1759204922050307810
0.337291111052668,0.0,1759204922069873878
0.28899505597663144,0.0,1759204922090005444
0.40432628137162585,0.0,1759204922109763874
0.3962552928898261,0.0,1759204922130065958
0.34541372196889714,0.0,1759204922149939747
0.33483542910317965,0.0,1759204922169742745
0.3013518861928617,0.0,1759204922188963170
0.4073481106683806,0.0,1759204922210919709
0.36661329960154254,0.0,1759204922228582324
0.382990728388563,0.0,1759204922250944630
0.3698526180026308,0.0,1759204922269689474
0.3248722078274722,0.0,1759204922290111208
0.4941252062844798,0.0,1759204922309724713
0.44471268565603184,0.0,1759204922329067549
0.39166075933057315,0.0,1759204922351447506
0.35708772735279803,0.0,1759204922369920507
0.3127546851491288,0.0,1759204922389810591
-0.0030790436522260545,0.0,1759204922410425795
-0.002771139287003449,0.0,1759204922428769681
0.03453014840392314,0.0,1759204922450968210
0.05125559765835502,0.0,1759204922469616809
0.037414491501250875,0.0,1759204922490254044
0.12008080878050886,0.0,1759204922509751672
0.10807272790245798,0.0,1759204922528624103
0.19705740410736888,0.0,1759204922551349582
0.22009167245101988,0.0,1759204922569678908
0.1890242881727081,0.0,1759204922590156056
0.2622646290415825,0.0,1759204922609631378
0.23603816613742423,0.0,1759204922628639985
0.3662847534371524,0.0,1759204922651088986
0.3679677799375713,0.0,1759204922669712203
0.3212004240289139,0.0,1759204922690009789
0.33277734389894903,0.0,1759204922709794288
0.272137904870248,0.0,1759204922729965550
0.3338142568763713,0.0,1759204922749898480
0.31601119325097726,0.0,1759204922770019416
0.27394330158336794,0.0,1759204922790300356
0.24654897142503115,0.0,1759204922808761106
0.2753755253337754,0.0,1759204922830048278
0.29790826403673165,0.0,1759204922851139174
0.28663777072583035,0.0,1759204922869904959
0.24963347121069424,0.0,1759204922890228695
0.2246701240896248,0.0,1759204922908649462
0.19516752031421605,0.0,1759204922931307847
0.19666041175322263,0.0,1759204922949759140
0.17699437057790038,0.0,1759204922968612178
0.13747084772218446,0.0,1759204922990363639
0.19210957789824024,0.0,1759204923009585117
0.17140875410726655,0.0,1759204923030817899
0.17387099076841625,0.0,1759204923049830443
0.15648389169157462,0.0,1759204923068634540
0.12035801807730159,0.0,1759204923090733276
0.13120996124432946,0.0,1759204923109708535
0.10689471687773544,0.0,1759204923131433445
0.1121203215320826,0.0,1759204923149720274
0.10090828937887433,0.0,1759204923168590223
0.06935405228798962,0.0,1759204923190374485
0.08427870744473899,0.0,1759204923209668777
0.0637826558519633,0.0,1759204923230901739
0.05740439026676697,0.0,1759204923248610489
0.06574345723569092,0.0,1759204923269801467
0.03516205922419019,0.0,1759204923289893663
0.010320580867292064,0.0,1759204923309859107
-0.040209330810850034,0.0,1759204923330118088
-0.00451406767228589,0.0,1759204923349671672
0.004007162199045083,0.0,1759204923370226737
-0.010272888317726707,0.0,1759204923389937990
-0.03595773158854248,0.0,1759204923409966103
-0.03236195842968823,0.0,1759204923428689833
-0.048995219698481675,0.0,1759204923450788614
-0.03915390013662597,0.0,1759204923470030589
-0.04830897456785273,0.0,1759204923489904782
-0.07183665322460378,0.0,1759204923509682854
-0.10369548246387073,0.0,1759204923530030620
-0.07596463562325269,0.0,1759204923549620495
-0.06364414366274526,0.0,1759204923569834666
-0.07012724510717762,0.0,1759204923589900345
-0.053668646692621336,0.0,1759204923609606260
-0.08705439535547914,0.0,1759204923630089402
-0.08864617642817471,0.0,1759204923649656645
-0.08253483852407736,0.0,1759204923670128400
-0.08714818654735466,0.0,1759204923690837017
-0.07032673641388695,0.0,1759204923709628207
-0.06329406277249826,0.0,1759204923728621072
-0.06394185302891386,0.0,1759204923751125844
-0.04776265440550119,0.0,1759204923769677301
-0.05661153650690856,0.0,1759204923789852878
-0.039988895612050754,0.0,1759204923809679046
-0.07709441097703199,0.0,1759204923830119447
-0.03131675911271645,0.0,1759204923849933094
-0.02151552500888288,0.0,1759204923869911303
-0.034083591649354185,0.0,1759204923889931665
-0.019103492013031194,0.0,1759204923909706572
-0.05577784980659297,0.0,1759204923930389580
-0.012136910186269764,0.0,1759204923949685734
-0.004423906645766387,0.0,1759204923969823522
-0.018407970086432503,0.0,1759204923989947569
0.03215058521956682,0.0,1759204924009623163
0.028935526697610136,0.0,1759204924028683760
0.03816743276839005,0.0,1759204924052315816
0.04521390922942199,0.0,1759204924069925349
0.0260412437713936,0.0,1759204924089910316
0.02343711939425424,0.0,1759204924108912651
0.04629686157458389,0.0,1759204924131211271
0.12733348335628988,0.0,1759204924149960661
0.1146001350206609,0.0,1759204924168615206
0.19159255851139856,0.0,1759204924191012846
0.17243330266025872,0.0,1759204924208583889
0.18402634542867286,0.0,1759204924229842742
0.21106953905739895,0.0,1759204924251452157
0.18996258515165906,0.0,1759204924269125271
0.14319289502469393,0.0,1759204924290190002
0.17170789180443677,0.0,1759204924309690171
0.1643089012743191,0.0,1759204924329715550
0.1860112686690807,0.0,1759204924351001758
0.16741014180217262,0.0,1759204924368587625
0.12266599575485854,0.0,1759204924390843435
0.15166514393287356,0.0,1759204924409937103
0.1459180951826479,0.0,1759204924429671496
0.10846984443510571,0.0,1759204924449980478
0.16178919446083304,0.0,1759204924469891714
0.11461707254529674,0.0,1759204924490112017
0.18847374525254681,0.0,1759204924509731887
0.1891721519872708,0.0,1759204924529731856
0.14670352401486156,0.0,1759204924550083698
0.2070087155631657,0.0,1759204924569645569
0.16113392220384726,0.0,1759204924589890476
0.2126709405359844,0.0,1759204924609701884
0.136556998543159,0.0,1759204924630353791
0.1913487026680985,0.0,1759204924650271537
0.19135553554438212,0.0,1759204924670079838
0.15450022670682712,0.0,1759204924689916637
0.19242341915412822,0.0,1759204924709731070
0.1731810772387154,0.0,1759204924728833863
0.20074861881197098,0.0,1759204924751107261
0.21112862437970345,0.0,1759204924769885880
0.1719779061177224,0.0,1759204924789812720
0.19795627654585207,0.0,1759204924809749065
0.17816064889126687,0.0,1759204924829387444
0.16283985368138074,0.0,1759204924851135768
0.16373679093994495,0.0,1759204924869956362
0.12888607640056804,0.0,1759204924890089948
0.16929496140243805,0.0,1759204924909953494
0.15236546526219424,0.0,1759204924928682513
0.1475802793925869,0.0,1759204924950905985
0.14555520847716968,0.0,1759204924969915550
0.11118436452299024,0.0,1759204924989859763
0.11650261943533662,0.0,1759204925009868695
0.10485235749180295,0.0,1759204925028561604
0.09107129814982921,0.0,1759204925051153172
0.09153476630277543,0.0,1759204925069608796
0.06277421115081078,0.0,1759204925089849861
0.0564967900357297,0.0,1759204925108618501
0.06780571614812102,0.0,1759204925129805866
0.014646083530123921,0.0,1759204925150879486
0.010930284054861588,0.0,1759204925169682653
-0.005743700078873808,0.0,1759204925190076757
-0.005169330070986427,0.0,1759204925208584751
-0.0214517148721257,0.0,1759204925229976062
-0.07538356975234192,0.0,1759204925250796356
-0.06784521277710773,0.0,1759204925269002919
-0.11525178356824982,0.0,1759204925291108609
-0.10372660521142484,0.0,1759204925308586844
-0.09700366826239441,0.0,1759204925329861343
-0.13701693401095325,0.0,1759204925350950643
-0.12331524060985792,0.0,1759204925368620248
-0.1465513836924344,0.0,1759204925390658555
-0.1969413867900358,0.0,1759204925410288627
-0.2197472049859172,0.0,1759204925431173538
-0.22742051519273004,0.0,1759204925449729767
-0.20467846367345705,0.0,1759204925468581441
-0.22096549739628596,0.0,1759204925490051656
-0.2212977394433852,0.0,1759204925509664803
-0.20428523536874663,0.0,1759204925529627448
-0.21304705093561258,0.0,1759204925549962748
-0.2585755442055762,0.0,1759204925569688112
-0.27159040063621814,0.0,1759204925589876360
-0.2776466327773175,0.0,1759204925609610107
-0.25749763057515107,0.0,1759204925629670254
-0.2601277711644511,0.0,1759204925650333285
-0.2611391657440225,0.0,1759204925670061253
-0.2652602120701093,0.0,1759204925690479077
-0.2622715843319749,0.0,1759204925709751237
-0.23604442589877742,0.0,1759204925728578750
-0.27476829947981785,0.0,1759204925751163530
-0.2482516669479326,0.0,1759204925769750259
-0.24360151431079072,0.0,1759204925790161832
-0.23142405686852763,0.0,1759204925809959193
-0.20828165118167488,0.0,1759204925828666803
-0.24450575954073892,0.0,1759204925851198607
-0.2212473645496907,0.0,1759204925870172721
-0.21864753824045005,0.0,1759204925890239844
-0.222640187130677,0.0,1759204925909675595
-0.2003761684176093,0.0,1759204925928631010
-0.24273923950286713,0.0,1759204925950977732
-0.221468803112964,0.0,1759204925969643101
-0.2183601200950326,0.0,1759204925989855185
-0.2226972496983458,0.0,1759204926009600379
-0.20042752472851125,0.0,1759204926028626431
-0.24348156102259516,0.0,1759204926050902486
-0.2215018614795924,0.0,1759204926069601367
-0.21895163185189914,0.0,1759204926089987022
-0.2225204300326672,0.0,1759204926109594430
-0.2518832799151556,0.0,1759204926129836623
-0.24392115609202317,0.0,1759204926149830631
-0.22256938311000432,0.0,1759204926170094294
-0.21910976486199518,0.0,1759204926190007498
-0.19719878837579566,0.0,1759204926209062641
-0.20641627783477282,0.0,1759204926229780604
-0.20321169965351915,0.0,1759204926250797640
-0.18289052968816724,0.0,1759204926268625217
-0.16942065448359636,0.0,1759204926290922088
-0.15247858903523673,0.0,1759204926308684310
-0.12996013182945512,0.0,1759204926329867067
-0.8991212798389947,0.0,1759204926351050703
-0.8092091518550952,0.0,1759204926369068618
-0.9330534222497723,0.0,1759204926391580048
-0.8397480800247951,0.0,1759204926408937061
-0.8002953717033926,0.0,1759204926429784758
-0.7449203483556417,0.0,1759204926450880712
-0.6704283135200776,0.0,1759204926468596522
-0.6316504905838053,0.0,1759204926490352558
-0.5457892291820011,0.0,1759204926509672875
-0.4862210880370878,0.0,1759204926530052099
-0.44142155562705593,0.0,1759204926551071814
-0.39727940006435036,0.0,1759204926568909636
-0.3851353575361087,0.0,1759204926590056617
-0.32004380771703744,0.0,1759204926609804954
-0.3020990484239432,0.0,1759204926631004020
-0.27188914358154886,0.0,1759204926648624719
-0.2264678013359836,0.0,1759204926669786959
-0.22498420644923917,0.0,1759204926690402152
-0.1846309699773709,0.0,1759204926709682663
-0.1661678729796338,0.0,1759204926728635162
-0.15452869671499211,0.0,1759204926751177416
-0.12714050957512357,0.0,1759204926770011741
-0.12786226463059927,0.0,1759204926789928875
-0.10395486449205321,0.0,1759204926809793622
-0.13145463205880265,0.0,1759204926829979643
-0.0853145688196188,0.0,1759204926849643979
-0.06801838697989125,0.0,1759204926870138864
-0.07366122388505261,0.0,1759204926889900477
-0.056287419894192066,0.0,1759204926909639666
-0.05065867790477286,0.0,1759204926928668572
-0.05074632767686242,0.0,1759204926950966913
-0.036710443862985914,0.0,1759204926969674211
-0.04464202909738519,0.0,1759204926989980116
-0.030555604569509974,0.0,1759204927009568097
-0.027500044112558977,0.0,1759204927028609031
-0.029639851818313176,0.0,1759204927051117943
-0.017994947766134035,0.0,1759204927069633869
-0.027130490668193757,0.0,1759204927089860451
-0.015434585916595078,0.0,1759204927109671790
-0.045528063866584895,0.0,1759204927130155463
-0.010833716628486454,0.0,1759204927149714789
-0.004653282490785254,0.0,1759204927170091108
-0.01494868192817329,0.0,1759204927190133759
-0.00471790742471509,0.0,1759204927209548818
-0.03163067302167612,0.0,1759204927230002890
-0.0022445505463432984,0.0,1759204927249680749
0.002480138690328248,0.0,1759204927269977011
-0.007725575321631234,0.0,1759204927290011541
-0.00695301778946811,0.0,1759204927308941458
-0.015097253912716997,0.0,1759204927331304780
0.004072878305355028,0.0,1759204927349830232
0.003665590474819525,0.0,1759204927368596524
0.002532731867286798,0.0,1759204927391110408
0.002279458680558118,0.0,1759204927408608422
-0.005590896816056532,0.0,1759204927431192481
0.007141637559546348,0.0,1759204927449688058
0.0064274738035917135,0.0,1759204927468934530
-0.009783820125262244,0.0,1759204927490347169
0.006825723445344075,0.0,1759204927509950487
-0.001979140144605096,0.0,1759204927530840287
0.008910600318146304,0.0,1759204927550016129
0.008019540286331674,0.0,1759204927568649658
-0.007409528942838596,0.0,1759204927590041362
0.007893676787961022,0.0,1759204927609617826
-0.0004629505795669857,0.0,1759204927630835317
-0.0004166555216102872,0.0,1759204927648683742
0.008680981939637825,0.0,1759204927669898086
-0.006885767842047618,0.0,1759204927689923814
0.007463159025485836,0.0,1759204927709623061
-0.021633379347867708,0.0,1759204927730213377
0.006213427217775992,0.0,1759204927749632194
0.012251403517339454,0.0,1759204927769676042
0.0034842150416370538,0.0,1759204927790113128
0.00970056299793107,0.0,1759204927809601171
0.008730506698137963,0.0,1759204927828832565
0.00508345416759693,0.0,1759204927851446765
0.009940092728661693,0.0,1759204927870158850
0.002286737776292894,0.0,1759204927890668616
0.007680879135387483,0.0,1759204927909839312
0.006912791221848735,0.0,1759204927928764683
0.0033616156086914762,0.0,1759204927950953044
0.007900744409159647,0.0,1759204927969800687
0.00082353813954162,0.0,1759204927989874422
0.00583919617881049,0.0,1759204928009898332
-0.012945861457891391,0.0,1759204928030351940
0.004488823820165251,0.0,1759204928049701421
0.00839601720133925,0.0,1759204928069615170
0.0017599930687231423,0.0,1759204928090219377
0.006479289520334592,0.0,1759204928109907186
-0.011429073879424857,0.0,1759204928130163322
0.0059550993338188495,0.0,1759204928149714913
0.008175393008928484,0.0,1759204928169655537
0.001480091658285338,0.0,1759204928189868370
0.006063711826232334,0.0,1759204928209637527
0.005457340643609101,0.0,1759204928228603312
0.0029492241152759883,0.0,1759204928250784220
0.006578665050600169,0.0,1759204928269576592
0.0007437159378040816,0.0,1759204928289910590
0.0048483055382388595,0.0,1759204928309909680
0.004363474984414974,0.0,1759204928328571854
0.0026479608033166636,0.0,1759204928351554637
0.005114177216386054,0.0,1759204928369681968
-0.0005151975053009888,0.0,1759204928391078325
0.004827378771766646,0.0,1759204928410039735
-0.005735862853537637,0.0,1759204928430116799
0.0037551522770662427,0.0,1759204928449969167
0.005448248868478658,0.0,1759204928469931143
0.0010507090285748824,0.0,1759204928489863791
0.0009456381257173942,0.0,1759204928508609792
0.004244867790874298,0.0,1759204928530161683
0.002410022751337863,0.0,1759204928551031654
0.002169020476204077,0.0,1759204928568589542
0.001474291763757878,0.0,1759204928591305092
0.0013268625873820903,0.0,1759204928609063870
0.0032417117655626475,0.0,1759204928629739243
0.002067386797994707,0.0,1759204928650917566
0.0018606481181952363,0.0,1759204928668607147
-0.005941792920341485,0.0,1759204928690703763
0.002710919005805946,0.0,1759204928709813660
0.004248563511043224,0.0,1759204928729755623
0.0029798671246510497,0.0,1759204928751555441
0.002681880412185945,0.0,1759204928768604689
-0.004724962507904967,0.0,1759204928790741848
0.003372432725010222,0.0,1759204928809640975
0.00470212935327091,0.0,1759204928829723008
-0.001424355307489497,0.0,1759204928850003733
0.0036466353435451104,0.0,1759204928869664286
-0.004064908953787579,0.0,1759204928889917847
0.0030868162418567343,0.0,1759204928909968058
0.004382102011826784,0.0,1759204928929732621
-0.0013952902184293818,0.0,1759204928949926281
0.003351496376715557,0.0,1759204928969687511
-0.003575589248863775,0.0,1759204928989870644
0.0028659347168759424,0.0,1759204929010063481
0.002579341245188348,0.0,1759204929028686725
0.0006189173838789543,0.0,1759204929050795763
0.003300641917241323,0.0,1759204929069913846
-0.001641666948730526,0.0,1759204929090455029
0.0031580597151133825,0.0,1759204929110026382
0.003910740616681796,0.0,1759204929130406979
-0.0008832503316654563,0.0,1759204929150005906
0.0028379363062974775,0.0,1759204929169685943
-0.0035521385615394016,0.0,1759204929189851831
0.002351296062944233,0.0,1759204929209665248
0.0021161664566498096,0.0,1759204929228620941
0.00028080742892377486,0.0,1759204929251070081
0.002828666719075845,0.0,1759204929270187617
-0.0018644705223700578,0.0,1759204929290011952
0.0025317298018115103,0.0,1759204929310089183
0.003316473500845414,0.0,1759204929329765377
-0.0007155128159701393,0.0,1759204929349991482
0.0025641988593813184,0.0,1759204929369580567
-0.002974890859016616,0.0,1759204929390073441
0.0021798737805893208,0.0,1759204929410025806
-0.00889569065421791,0.0,1759204929429935477
0.001324425132797102,0.0,1759204929449633399
0.0036619585570508914,0.0,1759204929469628752
0.000485958535139231,0.0,1759204929489916816
0.0028506128618703166,0.0,1759204929509613148
0.002565551575683285,0.0,1759204929528717475
0.0014033759067555252,0.0,1759204929551191261
0.003159038178933609,0.0,1759204929569689398
0.0005290416894351874,0.0,1759204929590214563
0.0024377450949691183,0.0,1759204929609647749
0.0021939705854722067,0.0,1759204929628606378
0.0008967815022497777,0.0,1759204929651670224
0.0026651325635515203,0.0,1759204929670113708
-4.389743623212962e-06,0.0,1759204929690023487
0.001945971524444281,0.0,1759204929709662981
0.001751374371999853,0.0,1759204929728858269
0.0005632501305435219,0.0,1759204929750981532
0.0022432026836706875,0.0,1759204929769832444
-1.2512657901557998e-05,0.0,1759204929789921984
0.0016672043544044748,0.0,1759204929809907483
0.0015004839189640274,0.0,1759204929828600757
0.0005294681078945283,0.0,1759204929851619294
0.0020098821065441747,0.0,1759204929869877741
-9.684416693702476e-05,0.0,1759204929890106614
0.0014700376412787567,0.0,1759204929909962971
0.001323033877150881,0.0,1759204929928988769
0.00038815967811426126,0.0,1759204929951381355
0.0017907493838182484,0.0,1759204929969628325
-0.00017583371160765694,0.0,1759204929989811131
0.0012885718534004506,0.0,1759204930009983413
-0.004111304412080565,0.0,1759204930030120710
0.0007737881746633689,0.0,1759204930049892047
0.0019494959534462441,0.0,1759204930069614844
7.473677187380548e-05,0.0,1759204930089901009
0.0014476420732515548,0.0,1759204930109679737
-0.0035616753005669605,0.0,1759204930130123437
0.0010290338201487943,0.0,1759204930149790204
0.0020893227726869815,0.0,1759204930169778530
0.0018803904954182834,0.0,1759204930188589199
0.0014184462952439843,0.0,1759204930211637010
-0.003760753810940401,0.0,1759204930230220008
0.0006415054530760286,0.0,1759204930249672283
0.0016662806641246797,0.0,1759204930270066346
9.61236077146781e-06,0.0,1759204930290016049
0.0012305449349348432,0.0,1759204930309672048
0.001535346109802581,0.0,1759204930329932509
-0.00029725546217944463,0.0,1759204930349978809
0.0011272481219100055,0.0,1759204930369862404
-0.0016046652693294736,0.0,1759204930390236723
0.00091713213090926,0.0,1759204930410003464
-0.0046489034741560385,0.0,1759204930430048573
0.0005319212068308253,0.0,1759204930449700565
0.0017235630345436995,0.0,1759204930469737063
0.00015378975678410054,0.0,1759204930490509903
0.0013664243563646819,0.0,1759204930510172667
-0.002747952770341512,0.0,1759204930530251914
0.0009981252246589103,0.0,1759204930549785396
0.0018445477329588561,0.0,1759204930569778291
0.0004254650398046202,0.0,1759204930589892599
0.00139259256386674,0.0,1759204930609862150
0.001253333307480066,0.0,1759204930628549039
0.0006258150903440655,0.0,1759204930651625748
0.0014911027219951752,0.0,1759204930669901520
0.000170208310562724,0.0,1759204930689841878
0.0010954080478035872,0.0,1759204930709847414
0.0009858672430232286,0.0,1759204930728736269
0.00040203642739305355,0.0,1759204930751099143
0.001217480848331279,0.0,1759204930769788092
-5.93069451808423e-06,0.0,1759204930790318208
0.0009145976523756475,0.0,1759204930809731926
0.0008231378871380828,0.0,1759204930828968814
0.0001398896491161929,0.0,1759204930851161761
0.0010702133510966695,0.0,1759204930869755891
-0.00023640592131872798,0.0,1759204930890272796
0.0007607453339642503,0.0,1759204930910058120
0.0006846708005678253,0.0,1759204930928610804
0.00010916428808287312,0.0,1759204930951156660
0.000988821548777105,0.0,1759204930969928926
-0.00023729025732983932,0.0,1759204930990255037
0.0007331232842122452,0.0,1759204931009721352
-0.002611755132999313,0.0,1759204931030216086
0.0005505055253702206,0.0,1759204931049627395
0.0011649564608152338,0.0,1759204931070110980
-0.0004198742849368911,0.0,1759204931089912459
0.0009923325663099218,0.0,1759204931109655302
-0.002847813001345233,0.0,1759204931130391924
0.000773850897271226,0.0,1759204931149604356
0.001559382219661945,0.0,1759204931169871287
0.0005425868632584725,0.0,1759204931190253201
0.001261524067190985,0.0,1759204931209986938
-0.0013145586118857486,0.0,1759204931230185287
0.0009836237697526,0.0,1759204931249680211
0.0014729694227257584,0.0,1759204931269722309
0.0005459046702254612,0.0,1759204931289870447
0.0011290838506456172,0.0,1759204931309939462
-0.001252719467404949,0.0,1759204931330196946
0.000821168076434511,0.0,1759204931350037011
0.0012870421111079095,0.0,1759204931369647093
0.0004286627379245031,0.0,1759204931389868621
0.0009793321566807464,0.0,1759204931409924219
-0.001269582733553965,0.0,1759204931430014537
0.0006900975142295376,0.0,1759204931449706577
0.0011240386923901484,0.0,1759204931469673956
0.00033115442418592766,0.0,1759204931490124613
0.0008650430457741394,0.0,1759204931509699820
-0.0011825221386145288,0.0,1759204931530246512
0.000664589003176134,0.0,1759204931549857815
0.0010729992958133782,0.0,1759204931569781611
0.0003241688115206328,0.0,1759204931589890559
0.0008156837926160353,0.0,1759204931609695181
-0.0011434329313682544,0.0,1759204931629923281
0.0005760597922505827,0.0,1759204931649671362
0.0009505467966282072,0.0,1759204931670059024
0.0002423343888513594,0.0,1759204931689839795
0.0007026963436234524,0.0,1759204931710008528
-0.0011424387634637993,0.0,1759204931729947343
0.00045023965190389183,0.0,1759204931749983198
0.0007643407082894576,0.0,1759204931769853547
-8.675936064890912e-05,0.0,1759204931789855657
0.0006410547162726716,0.0,1759204931809672910
-0.0014139472042900818,0.0,1759204931830204998
0.0004543687430222556,0.0,1759204931849734154
0.0008650460058604883,0.0,1759204931869580184
0.00022690141070609332,0.0,1759204931889982899
0.0006699428809749725,0.0,1759204931909744210
0.0006029485928774753,0.0,1759204931929011140
0.0003297302769305361,0.0,1759204931950877419
0.0006865936019885736,0.0,1759204931969612847
0.00015008986639058466,0.0,1759204931989912804
0.000515468127042027,0.0,1759204932010147818
0.00046392131433782433,0.0,1759204932029143709
0.00022470727422096103,0.0,1759204932051355211
0.0005535076915112547,0.0,1759204932069658472
6.13581232710479e-05,0.0,1759204932089837457
0.0004036784341375479,0.0,1759204932110227698
1.170103284571847e-05,0.0,1759204932130791032
1.0530929561146624e-05,0.0,1759204932148705158
0.00039748043078280474,0.0,1759204932169920598
-0.00044265760167836967,0.0,1759204932189802461
0.00030927435858454,0.0,1759204932209665404
0.00027834692272608603,0.0,1759204932229209664
4.260861356028011e-05,0.0,1759204932250940871
0.00036654667973566726,0.0,1759204932269732374
-0.00022219250910931717,0.0,1759204932290159651
0.00034437748058904527,0.0,1759204932309816900
0.00043898324882552756,0.0,1759204932329948324
-0.00011270184844611912,0.0,1759204932349861552
0.00031764128862468255,0.0,1759204932369975409
-0.00040434523346310477,0.0,1759204932389945032
0.0002537809150411364,0.0,1759204932409989080
-0.0011220979097595275,0.0,1759204932430251037
0.00019280290852989146,0.0,1759204932449664588
0.00043820092680465133,0.0,1759204932470100813
-9.29415328232672e-05,0.0,1759204932490166213
0.0003862082855586261,0.0,1759204932510041140
0.0003475874570027635,0.0,1759204932528633038
0.0001419483767339822,0.0,1759204932551241152
0.0003790351052014054,0.0,1759204932569973289
-0.00010787415457247487,0.0,1759204932590032916
0.00032996167462693427,0.0,1759204932609897742
0.00029696550716424083,0.0,1759204932628833292
0.00010310954570481978,0.0,1759204932650988904
0.00031506999188069733,0.0,1759204932670704418
-0.00014246390803882963,0.0,1759204932690357566
0.00027454270519645685,0.0,1759204932709907191
0.00024708843467681116,0.0,1759204932728566910
6.905300226191184e-05,0.0,1759204932750956276
0.0003117551912539312,0.0,1759204932769678227
-2.0182210043405673e-05,0.0,1759204932790264967
0.00024193206200158866,0.0,1759204932809625243
0.0002177388558014298,0.0,1759204932828595380
7.987433293319996e-05,0.0,1759204932851187902
0.00029057286072941034,0.0,1759204932869701342
-4.738406694576841e-06,0.0,1759204932890347593
0.00022387305598360263,0.0,1759204932909600472
0.00020148575038524236,0.0,1759204932928898559
6.863974620239514e-05,0.0,1759204932951208734
0.00026344293408409476,0.0,1759204932969672783
-1.0097784013958554e-05,0.0,1759204932990220240
0.00019469171282810008,0.0,1759204933010212484
0.00017522254154529008,0.0,1759204933028614682
5.241272757966939e-05,0.0,1759204933050870025
0.00020614293909566802,0.0,1759204933069618311
-0.00012894739560149034,0.0,1759204933090069546
0.00018679000757319104,0.0,1759204933109667564
0.00016811100681587193,0.0,1759204933128581140
2.3873369958353794e-05,0.0,1759204933151164550
0.00022043143770887323,0.0,1759204933170011936
-3.42227230713286e-05,0.0,1759204933189825971
0.00016151442277600374,0.0,1759204933209631647
-0.00047907874343580974,0.0,1759204933230088395
0.00011294797053492257,0.0,1759204933249999447
0.0002318519696796664,0.0,1759204933270019722
-0.00030474587292264534,0.0,1759204933289913457
0.00015827952023768517,0.0,1759204933309596490
0.00014245156821391666,0.0,1759204933328731794
-9.007203504685923e-05,0.0,1759204933350939886
0.00022725496442844233,0.0,1759204933370069099
1.4854549136249294e-05,0.0,1759204933390042229
0.00020408626042652626,0.0,1759204933409743074
0.00018367763438387365,0.0,1759204933428584792
-1.9395543999836863e-05,0.0,1759204933451033589
0.00023259169609491628,0.0,1759204933469615935
-0.0001166855066571321,0.0,1759204933490031351
0.000164061928691496,0.0,1759204933509710275
0.00014765573582234642,0.0,1759204933528668383
-7.106164148331642e-06,0.0,1759204933550819970
0.00023273854971226344,0.0,1759204933569614316
9.532721613259978e-05,0.0,1759204933589992776
0.00021145357329009124,0.0,1759204933610022240
0.00019030821596108211,0.0,1759204933628632734
0.0001366533447658396,0.0,1759204933651112527
0.00021123581557671374,0.0,1759204933669752709
8.504465484295733e-05,0.0,1759204933689922491
0.0001633697508892908,0.0,1759204933709794646
0.00014703277580036173,0.0,1759204933728642505
9.06299919657385e-05,0.0,1759204933751472532
0.0001571729394896765,0.0,1759204933770387993
1.926221875461629e-05,0.0,1759204933789917715
0.00010948388344998487,0.0,1759204933809976109
9.853549510498639e-05,0.0,1759204933828611770
3.822798007410038e-05,0.0,1759204933850845050
0.00011496478364398342,0.0,1759204933870710481
-8.525756654000093e-06,0.0,1759204933890141698
8.283837537150308e-05,0.0,1759204933909679695
7.455453783435277e-05,0.0,1759204933928630631
-0.00010406361077796466,0.0,1759204933951008369
9.685764917558447e-05,0.0,1759204933969736138
1.4769479463101268e-05,0.0,1759204933990001880
0.00010195223009108813,0.0,1759204934009806897
9.175700708197931e-05,0.0,1759204934028598866
6.419366835669102e-05,0.0,1759204934051024299
0.00011419235446314627,0.0,1759204934069596667
3.795351469586231e-05,0.0,1759204934089937901
8.883645008993455e-05,0.0,1759204934109683218
7.995280508094109e-05,0.0,1759204934128630265
4.5835419145574325e-05,0.0,1759204934150866877
8.808747853501051e-05,0.0,1759204934169869827
2.150089687212642e-05,0.0,1759204934190172729
6.717358340930854e-05,0.0,1759204934210192741
6.0456225068377684e-05,0.0,1759204934228606374
-0.00011321088765336444,0.0,1759204934251243668
6.563874264696657e-05,0.0,1759204934269876894
-0.00018073582645192104,0.0,1759204934289864501
2.257170522011959e-05,0.0,1759204934310278457
2.031453469810763e-05,0.0,1759204934329069430
-8.645635754179508e-05,0.0,1759204934350867825
9.13354276879205e-05,0.0,1759204934370438189
2.823741422311859e-05,0.0,1759204934390013957
9.854802488013446e-05,0.0,1759204934409848584
-0.0005697410094864653,0.0,1759204934430121048
-1.3058234404960756e-06,0.0,1759204934450302325
0.00014455057416945709,0.0,1759204934469870796
-7.599339586292493e-05,0.0,1759204934490836916
0.00010798855251746393,0.0,1759204934510047510
9.718969726571754e-05,0.0,1759204934528989874
-4.091945441359816e-06,0.0,1759204934551019726
0.00015260787029677301,0.0,1759204934569607386
0.0001306418465415448,0.0,1759204934589893247
0.00015623612668076757,0.0,1759204934609628655
0.0001406125140126908,0.0,1759204934628598624
0.00013708402791134854,0.0,1759204934651187727
0.0001312408647709996,0.0,1759204934669955753
0.00011444744321319527,0.0,1759204934689861169
0.00010701456972749066,0.0,1759204934709951196
9.63131127547416e-05,0.0,1759204934728619387
8.679422000907748e-05,0.0,1759204934750953963
7.979271230923693e-05,0.0,1759204934769987445
7.104559834971668e-05,0.0,1759204934789862158
6.481105761748099e-05,0.0,1759204934809629866
5.8329951855732895e-05,0.0,1759204934828594133
5.347140114284636e-05,0.0,1759204934850974819
4.767466927337529e-05,0.0,1759204934870217639
4.4774223902922274e-05,0.0,1759204934890493695
3.89490143093836e-05,0.0,1759204934909765803
3.5054112878445245e-05,0.0,1759204934928619052
3.353572354381378e-05,0.0,1759204934951666750
2.7698840708550212e-05,0.0,1759204934969653906
2.9225785729266358e-05,0.0,1759204934989835918
2.3009921608940902e-05,0.0,1759204935009804291
2.0708929448046812e-05,0.0,1759204935028604641
2.170893305377339e-05,0.0,1759204935050864821
1.5405344864077293e-05,0.0,1759204935069600146
2.0255903164736567e-05,0.0,1759204935090255714
1.308368548920224e-05,0.0,1759204935110017218
1.1775316940282016e-05,0.0,1759204935128813678
1.4569134423537784e-05,0.0,1759204935151060814
7.294160919771333e-06,0.0,1759204935169607876
1.5149998233516721e-05,0.0,1759204935189854976
6.808028478778696e-06,0.0,1759204935209622973
6.127225630900827e-06,0.0,1759204935228586052
1.0292925336148187e-05,0.0,1759204935251166320
1.896909675903199e-06,0.0,1759204935269655749
-8.668788468548504e-06,0.0,1759204935289887952
-2.698709504263704e-06,0.0,1759204935309702032
-2.428838553837334e-06,0.0,1759204935328639425
-6.663127808221775e-06,0.0,1759204935351264235
2.0848459603155644e-07,0.0,1759204935370206157
-7.244915479266164e-06,0.0,1759204935390199374
-3.4153651187777434e-07,0.0,1759204935409892513
-1.723776652921662e-05,0.0,1759204935430148784
-4.679229022687107e-07,0.0,1759204935450018058
3.824282963128987e-06,0.0,1759204935469655097
-6.667060966482576e-07,0.0,1759204935490255651
3.176574677634404e-06,0.0,1759204935509617265
-5.6578603394192575e-06,0.0,1759204935530056942
2.8565407485917284e-06,0.0,1759204935549650327
4.703138140191595e-06,0.0,1759204935570035883
2.673807495338743e-06,0.0,1759204935590079266
3.92504303113069e-06,0.0,1759204935609818297
2.599503663800259e-06,0.0,1759204935630118062
3.674844949558179e-06,0.0,1759204935649744623
3.6659762535685483e-06,0.0,1759204935670033796
4.214359532007356e-06,0.0,1759204935689866126
3.300230772482287e-06,0.0,1759204935709792246
9.14271442420824e-06,0.0,1759204935730059093
3.5224578890845684e-06,0.0,1759204935749903689
1.8472325887191703e-06,0.0,1759204935769665967
2.5222324639033825e-05,0.0,1759204935789927428
7.355861088548111e-06,0.0,1759204935810023422
7.991652023248159e-05,0.0,1759204935829925918
1.2479164418347657e-05,0.0,1759204935849966609
-5.339181598710566e-06,0.0,1759204935869909252
-8.070831216820652e-07,0.0,1759204935890337559
-7.342467454678951e-06,0.0,1759204935909784308
8.60982478865596e-06,0.0,1759204935929928611
-6.08962076445355e-06,0.0,1759204935949734562
-9.253892714366801e-06,0.0,1759204935970056971
-2.2748032891564108e-06,0.0,1759204935990088799
-6.881421156901656e-06,0.0,1759204936009699680
1.4355107197676697e-05,0.0,1759204936030223717
-4.889690995519984e-06,0.0,1759204936049644105
-9.197215343318742e-06,0.0,1759204936069706376
1.934311540878257e-05,0.0,1759204936090264948
-2.2574458904182284e-06,0.0,1759204936109718749
8.217611740805528e-05,0.0,1759204936130116899
1.9625937622616676e-06,0.0,1759204936149720921
-1.774814623075278e-05,0.0,1759204936169888312
1.2587207853715183e-05,0.0,1759204936189923407
-1.1616331262257246e-05,0.0,1759204936209806671
7.621383433279274e-05,0.0,1759204936230018549
-4.442031128784686e-06,0.0,1759204936249952013
-2.123319198723904e-05,0.0,1759204936270310803
2.1414413149629283e-05,0.0,1759204936289911538
-1.681287067691882e-05,0.0,1759204936309963160
-1.5131583609226937e-05,0.0,1759204936329272105
3.888201612976902e-06,0.0,1759204936350994587
-2.2237322393846304e-05,0.0,1759204936369735342
9.333323003176638e-06,0.0,1759204936390765980
-1.8193636829286004e-05,0.0,1759204936409667218
7.242846847426712e-05,0.0,1759204936429832488
-1.0817955405581446e-05,0.0,1759204936449738962
-2.7505861919345214e-05,0.0,1759204936470095721
1.5548503871886835e-05,0.0,1759204936490308036
-2.4240984512964606e-05,0.0,1759204936509690270
8.579069590297422e-05,0.0,1759204936530220154
-1.6602381728287883e-05,0.0,1759204936549616292
-3.933717238538955e-05,0.0,1759204936569682717
-2.5367422173981784e-05,0.0,1759204936590197842
-3.5237708425383834e-05,0.0,1759204936610040171
-3.1713937582845454e-05,0.0,1759204936628901455
-0.00015460242245285327,0.0,1759204936651054906
-3.418745663854787e-05,0.0,1759204936669594555
-0.00018326700378349335,0.0,1759204936690225209
-3.88848647015083e-05,0.0,1759204936709594523
-3.499637823135747e-05,0.0,1759204936728588232
-9.726097959926294e-05,0.0,1759204936751229879
2.789751847070122e-05,0.0,1759204936769685933
5.0578696644174235e-05,0.0,1759204936789831916
5.39386602316775e-05,0.0,1759204936809755506
4.854479420850975e-05,0.0,1759204936828614962
6.630619822790154e-05,0.0,1759204936850887803
4.37566747276669e-05,0.0,1759204936869781809
6.502291018434426e-05,0.0,1759204936890024117
3.802962943847362e-05,0.0,1759204936909587033
3.4226666494626254e-05,0.0,1759204936928614869
4.26671181271485e-05,0.0,1759204936951627783
1.822888398106253e-05,0.0,1759204936969862807
4.289327323515382e-05,0.0,1759204936990003991
1.7136383336137074e-05,0.0,1759204937009634872
1.5422745002523366e-05,0.0,1759204937028953633
2.6178229932034396e-05,0.0,1759204937050877196
3.8822931366090935e-06,0.0,1759204937070220595
3.0464722056211732e-05,0.0,1759204937089878333
5.9847275270667e-06,0.0,1759204937109904444
5.38625477436003e-06,0.0,1759204937128605779
1.690862029963772e-05,0.0,1759204937151186393
-5.047662375991102e-06,0.0,1759204937169959574
4.2515984002736174e-05,0.0,1759204937189855580
4.51215145188278e-06,0.0,1759204937210113010
4.060936306694502e-06,0.0,1759204937228857766
2.537068891487858e-05,0.0,1759204937251333128
-1.2014728511211508e-05,0.0,1759204937269880386
3.2761323754537265e-05,0.0,1759204937291054215
-9.635453205888228e-06,0.0,1759204937309734622
-8.671907885299405e-06,0.0,1759204937328623259
1.2415840937064374e-05,0.0,1759204937350948526
-2.2865130293159768e-05,0.0,1759204937369805822
2.3611177085887385e-05,0.0,1759204937390145796
-1.4570575776131245e-05,0.0,1759204937410128402
0.0001229105923365866,0.0,1759204937429862471
-2.688678951882575e-07,0.0,1759204937450168486
-3.235461994325316e-05,0.0,1759204937469652295
1.4451832866503521e-05,0.0,1759204937490004802
-2.2833521447883546e-05,0.0,1759204937509665208
-2.0550169303095192e-05,0.0,1759204937528591407
-4.674163284752015e-07,0.0,1759204937552503374
-3.596291220009885e-05,0.0,1759204937569697052
2.870551479773219e-05,0.0,1759204937590107345
-2.1511039022517545e-05,0.0,1759204937609807516
-1.935993512026579e-05,0.0,1759204937628647659
9.482307713768716e-06,0.0,1759204937652018065
-4.006556364344368e-05,0.0,1759204937669611895
2.3415770121541325e-05,0.0,1759204937689936708
-2.770404274523644e-05,0.0,1759204937709678441
-2.4933638470712796e-05,0.0,1759204937728600572
0.00012680266723365922,0.0,1759204937751718705
-4.630252893389934e-05,0.0,1759204937769966913
-7.186204016802132e-06,0.0,1759204937789912501
-6.216946935320702e-05,0.0,1759204937809952817
-5.5952522417886324e-05,0.0,1759204937828653250
-4.59253316930754e-05,0.0,1759204937851529909
-7.059562404548598e-05,0.0,1759204937870230917
-2.9204625535128213e-05,0.0,1759204937889959314
-5.4119345885626545e-05,0.0,1759204937909933977
-4.870741129706389e-05,0.0,1759204937928651163
-2.9103463041234457e-05,0.0,1759204937950833906
-5.096087076885901e-05,0.0,1759204937970113913
-3.2163520751806284e-05,0.0,1759204937990571059
-4.375916723813355e-05,0.0,1759204938009939229
-3.93832505143202e-05,0.0,1759204938028978506
-2.9956011006301823e-05,0.0,1759204938050768443
-3.643031611516733e-05,0.0,1759204938069920401
-1.258866060161222e-05,0.0,1759204938089932744
-2.992201948473517e-05,0.0,1759204938109606010
2.8433031701928365e-05,0.0,1759204938130023167
-2.125180989870722e-05,0.0,1759204938149752296
-2.9892563411925232e-05,0.0,1759204938170136239
2.157066471740857e-05,0.0,1759204938190517697
-2.2845149754786248e-05,0.0,1759204938209722995
-2.0560634779307622e-05,0.0,1759204938228942114
2.411021254777548e-06,0.0,1759204938251101159
-2.392119125798241e-05,0.0,1759204938269762739
2.7207930461372022e-05,0.0,1759204938289846821
-2.1903705839687998e-05,0.0,1759204938309616465
-3.032397371440413e-05,0.0,1759204938330368089
2.0222563717932777e-05,0.0,1759204938349767299
-1.9640639628964115e-05,0.0,1759204938369987321
9.156957596273207e-06,0.0,1759204938390417963
-2.261781912014041e-05,0.0,1759204938410068898
3.577325802147519e-05,0.0,1759204938430669201
-2.0764401044445144e-05,0.0,1759204938449784553
-3.0430299670031494e-05,0.0,1759204938469581161
-5.8697558206011075e-06,0.0,1759204938489905826
-2.600802535098521e-05,0.0,1759204938509914085
-2.3407222815886687e-05,0.0,1759204938528837062
-1.2549949018273261e-05,0.0,1759204938551044536
-2.315248785617231e-05,0.0,1759204938569916904
9.48855167402771e-07,0.0,1759204938589851793
-2.0076530344795504e-05,0.0,1759204938609615203
-1.8068877310315954e-05,0.0,1759204938629319351
-7.324595592302788e-06,0.0,1759204938651347337
-1.8915043187689117e-05,0.0,1759204938669740480
5.461072687744845e-06,0.0,1759204938689919963
-1.6409374440555935e-05,0.0,1759204938709755815
-1.4768436996500341e-05,0.0,1759204938728567216
-4.479603994547537e-06,0.0,1759204938751843542
-1.704967501169366e-05,0.0,1759204938769717770
3.4429239768629056e-05,0.0,1759204938789990289
-1.1154249149929138e-05,0.0,1759204938809679853
-1.0038824234936225e-05,0.0,1759204938828580591
0.00016591810098676271,0.0,1759204938851016803
4.737463685349684e-06,0.0,1759204938869664322
0.00028897377839892115,0.0,1759204938890250105
-1.3329823875422061e-05,0.0,1759204938909689674
-1.1996841487879855e-05,0.0,1759204938928619671
0.00011743977653557925,0.0,1759204938950774673
-5.8817599808653256e-05,0.0,1759204938969658246
-5.208490368653495e-05,0.0,1759204938990076481
-0.0001121928287755583,0.0,1759204939010046737
-0.00010097354589800247,0.0,1759204939028650682
-0.00010604066922845069,0.0,1759204939050920529
-0.00010079491923316257,0.0,1759204939069711416
-0.000327877375585163,0.0,1759204939090392798
-0.00011378226786830142,0.0,1759204939110527429
-0.00010240404108147128,0.0,1759204939128975532
-0.00019780911260745512,0.0,1759204939151027837
-5.442798970204234e-05,0.0,1759204939170078715
-5.248763009602753e-06,0.0,1759204939190142783
1.2399299157269887e-05,0.0,1759204939209728313
1.5029826341553741e-05,0.0,1759204939230528252
5.674781829639923e-05,0.0,1759204939249876384
2.3032563907557377e-05,0.0,1759204939270259618
7.95869150490095e-05,0.0,1759204939289824548
2.2509835112805146e-05,0.0,1759204939310264502
2.025885160152463e-05,0.0,1759204939328694577
3.4603405598423304e-05,0.0,1759204939350953097
7.49540414743216e-06,0.0,1759204939370690980
-0.0002372105158447394,0.0,1759204939389843019
-5.2693887548580886e-05,0.0,1759204939409999354
-0.0006312399356180799,0.0,1759204939430063041
-8.616007397486253e-05,0.0,1759204939449744123
4.900727175178762e-05,0.0,1759204939469795046
-0.00011385510999413416,0.0,1759204939490156025
2.867579973192553e-05,0.0,1759204939510245208
2.5808219758732978e-05,0.0,1759204939528705244
-3.7573878367664344e-05,0.0,1759204939551029630
6.138732300116862e-05,0.0,1759204939570047125
-0.00014161249786591118,0.0,1759204939589956255
5.598192688302146e-05,0.0,1759204939609601095
5.038373419471931e-05,0.0,1759204939629080046
-3.3659316065392524e-05,0.0,1759204939651246845
7.462906351029614e-05,0.0,1759204939670112057
-0.0001235151644876882,0.0,1759204939690609334
7.538830399112351e-05,0.0,1759204939709864745
-0.0004178200825712907,0.0,1759204939729970063
3.354310921659375e-05,0.0,1759204939749653580
0.00012446730371189525,0.0,1759204939769734958
-6.695187389533103e-05,0.0,1759204939790227184
0.00011014581472309254,0.0,1759204939809994061
9.913123325078328e-05,0.0,1759204939828925515
2.2531885609248755e-05,0.0,1759204939851175667
0.00011595866564482428,0.0,1759204939869806686
-6.347915901843571e-05,0.0,1759204939890142722
0.00010443536848968062,0.0,1759204939909943118
-1.8462165960990285e-05,0.0,1759204939930971779
-1.661594936489126e-05,0.0,1759204939948797532
0.00010832400520103604,0.0,1759204939970250198
-0.00011072346371369955,0.0,1759204939990373332
9.730522307439482e-05,0.0,1759204940009691967
-0.0003291108698904521,0.0,1759204940030049419
7.185470829507645e-05,0.0,1759204940049681060
0.000146987903978682,0.0,1759204940070069778
-2.2190929898399713e-05,0.0,1759204940089779220
0.00012508437849921534,0.0,1759204940109786153
-0.00025802327774447365,0.0,1759204940130386030
8.882172827807673e-05,0.0,1759204940149819846
0.00016457456712776965,0.0,1759204940170007537
4.54712172006294e-05,0.0,1759204940189947273
0.00012701621618886068,0.0,1759204940209808220
0.00011431459456997461,0.0,1759204940228776403
6.362680861608674e-05,0.0,1759204940250869458
0.00011934867428770865,0.0,1759204940269631567
-1.584844914354137e-05,0.0,1759204940289964727
9.957719916087937e-05,0.0,1759204940310114314
8.961947924479143e-05,0.0,1759204940328720306
3.0685288839676185e-05,0.0,1759204940351104594
9.405987138532131e-05,0.0,1759204940370241351
-4.062971249046899e-05,0.0,1759204940389851011
8.008355603515799e-05,0.0,1759204940409758783
0.0004043741313682394,0.0,1759204940429960606
0.00014789783479760433,0.0,1759204940449700123
8.468083420392222e-05,0.0,1759204940470231350
0.00020569474059740084,0.0,1759204940489867971
7.460921060121495e-05,0.0,1759204940510311780
6.714828954109345e-05,0.0,1759204940528736558
0.00012553675789045982,0.0,1759204940551198904
2.2861518381318106e-05,0.0,1759204940570341437
0.00012689490649902082,0.0,1759204940590224618
2.5240559446163178e-05,0.0,1759204940610002960
2.271650350154686e-05,0.0,1759204940628768066
6.172800293007471e-05,0.0,1759204940651195913
-1.1211506135850575e-05,0.0,1759204940669637269
0.0001214518902071867,0.0,1759204940689792249
-1.3933249404319588e-05,0.0,1759204940709625807
-1.253992446388763e-05,0.0,1759204940728727517
4.181326260723228e-05,0.0,1759204940751744516
-3.753522916415675e-05,0.0,1759204940769926986
9.85417451777739e-05,0.0,1759204940789840091
-3.628053950949208e-05,0.0,1759204940810029558
-3.2652485558542875e-05,0.0,1759204940828643197
1.827137888534293e-05,0.0,1759204940852167995
-5.741839232446159e-05,0.0,1759204940869921915
7.59081466560057e-05,0.0,1759204940889905455
-5.2491519483144905e-05,0.0,1759204940909859667
-4.7242367534830416e-05,0.0,1759204940928543637
4.8127603157442904e-06,0.0,1759204940951144698
-6.3567561248579e-05,0.0,1759204940969765515
-0.00018335448295156063,0.0,1759204940989916084
-0.00010009351928633612,0.0,1759204941010255931
-0.00041117516063099614,0.0,1759204941030169297
-0.00011292229929903949,0.0,1759204941049735892
-4.281921556398116e-05,0.0,1759204941069741911
8.784899037146514e-05,0.0,1759204941090325133
8.701283284184383e-06,0.0,1759204941110016269
7.831154955765945e-06,0.0,1759204941129219274
7.010035838876995e-05,0.0,1759204941150847718
7.34157529065906e-07,0.0,1759204941170174947
-0.0001228657558058176,0.0,1759204941190748607
-4.338747994906493e-05,0.0,1759204941210122800
-3.904873195415844e-05,0.0,1759204941228716233
-9.350637446604837e-05,0.0,1759204941251337490
-2.0976133329121354e-05,0.0,1759204941269603851
-0.0001320168268984755,0.0,1759204941290431695
-5.677504819007716e-06,0.0,1759204941309872135
-5.109754337106944e-06,0.0,1759204941328896423
-4.804896047472455e-05,0.0,1759204941351342179
1.810010528856259e-05,0.0,1759204941370064567
-9.312829882454485e-05,0.0,1759204941390265657
2.3104262756948335e-05,0.0,1759204941409813708
2.07938364812535e-05,0.0,1759204941428621515
-2.212115676298799e-05,0.0,1759204941450973485
3.647115283892672e-05,0.0,1759204941469961283
-9.319621154179976e-05,0.0,1759204941490464606
3.4965019769862466e-05,0.0,1759204941510045021
5.9719237137307555e-05,0.0,1759204941529818088
-6.472413992655206e-05,0.0,1759204941549779845
4.044349800013489e-05,0.0,1759204941569630071
-8.689245921488168e-05,0.0,1759204941590296489
4.4241110361078646e-05,0.0,1759204941610002167
-0.00021079245039986124,0.0,1759204941630201936
3.4129796325002776e-05,0.0,1759204941649614053
8.13137096919924e-05,0.0,1759204941669603119
-1.6876282402229388e-05,0.0,1759204941689911169
7.158953067384083e-05,0.0,1759204941709929666
8.562966987421306e-05,0.0,1759204941729699739
-4.4840909645161995e-06,0.0,1759204941749966792
6.558440671427802e-05,0.0,1759204941769657883
0.00027169596046529933,0.0,1759204941790333080
0.00010034119841485794,0.0,1759204941809911652
9.030707857337215e-05,0.0,1759204941828580423
0.00015283982723953877,0.0,1759204941851032208
4.7294950925725964e-05,0.0,1759204941869670040
0.00019942758502860394,0.0,1759204941890027462
2.5402908268613964e-05,0.0,1759204941909580674
2.2862617441752568e-05,0.0,1759204941928861151
7.769393553849698e-05,0.0,1759204941951683770
-3.0133577395069383e-05,0.0,1759204941969786636
-0.00011745658903330291,0.0,1759204941989878926
-6.825871265805556e-05,0.0,1759204942009660845
-6.143284139225e-05,0.0,1759204942028639257
-0.00010343800773417018,0.0,1759204942051228200
-4.184985724382701e-05,0.0,1759204942069925241
-0.000146284929764351,0.0,1759204942090343891
-3.1487344021819744e-05,0.0,1759204942110458538
-0.00026147419531206593,0.0,1759204942129919999
-3.8762297542787954e-05,0.0,1759204942149610393
1.0047917122026327e-05,0.0,1759204942169733518
9.043125409823695e-06,0.0,1759204942188963079
5.912713209017964e-05,0.0,1759204942211518752
5.321441888116168e-05,0.0,1759204942228565841
0.00011179857966742035,0.0,1759204942250946521
3.086978244383266e-05,0.0,1759204942269639218
0.00015326748187109658,0.0,1759204942290660586
9.013376066651117e-06,0.0,1759204942309738852
8.112038459986006e-06,0.0,1759204942328672134
5.6326241532953674e-05,0.0,1759204942351277745
-1.796867580654604e-05,0.0,1759204942370195243
0.0001368287659960663,0.0,1759204942390023049
-1.3517208635324321e-05,0.0,1759204942410123970
0.00037309198598440625,0.0,1759204942429926928
1.3194833386932336e-05,0.0,1759204942449701142
-6.128610429505508e-05,0.0,1759204942469849400
8.90387799516979e-05,0.0,1759204942490018744
-5.76739770806375e-05,0.0,1759204942509617512
-5.190657937257375e-05,0.0,1759204942528546966
7.179816354262178e-06,0.0,1759204942550885558
-6.929771504433438e-05,0.0,1759204942569625161
7.075862425320242e-05,0.0,1759204942590365026
-6.767915861446533e-05,0.0,1759204942609981380
-6.09112427530188e-05,0.0,1759204942629009522
-3.3579409177717992e-06,0.0,1759204942651160731
-7.622312140288462e-05,0.0,1759204942669759651
5.796710609637216e-05,0.0,1759204942690224108
-7.476719296216764e-05,0.0,1759204942709683814
-6.729047366595088e-05,0.0,1759204942728636382
-1.1858403875966335e-05,0.0,1759204942751121178
-7.904827564672057e-05,0.0,1759204942769993730
2.847997700753901e-05,0.0,1759204942790138920
-7.31976952475732e-05,0.0,1759204942810015561
-6.587792572281589e-05,0.0,1759204942828656411
-2.32891966933049e-05,0.0,1759204942850934140
-7.254420892775861e-05,0.0,1759204942870042011
2.945800900612915e-05,0.0,1759204942890216428
-6.421611406462792e-05,0.0,1759204942909848855
-5.7794502658165135e-05,0.0,1759204942928594282
-1.688400159964488e-05,0.0,1759204942951239734
-6.608339554604401e-05,0.0,1759204942969646859
2.939639376176673e-05,0.0,1759204942990105583
-5.990938621697998e-05,0.0,1759204943009873228
-5.391844759528198e-05,0.0,1759204943028614398
-1.4707546545172658e-05,0.0,1759204943051058573
-6.0317446989460235e-05,0.0,1759204943070090186
3.149969867768146e-05,0.0,1759204943090722099
-5.4363493400932925e-05,0.0,1759204943110189656
-4.8927144060839634e-05,0.0,1759204943128654880
-1.153558758119502e-05,0.0,1759204943151006388
-5.517471454342683e-05,0.0,1759204943170120655
5.68199100630686e-05,0.0,1759204943190421404
-4.7690987330819525e-05,0.0,1759204943209899179
-4.292188859773757e-05,0.0,1759204943228847874
3.1780609964732285e-06,0.0,1759204943251056786
-5.42474128482625e-05,0.0,1759204943269621940
4.9125900951661625e-05,0.0,1759204943290701495
-5.688806432422713e-05,0.0,1759204943309769819
-5.119925789180442e-05,0.0,1759204943328860578
-7.149660197663833e-06,0.0,1759204943350945333
-6.02778364002735e-05,0.0,1759204943369867284
4.301712730870019e-05,0.0,1759204943389829030
-5.4554021749553737e-05,0.0,1759204943409668901
-4.909861957459836e-05,0.0,1759204943428688329
-7.203584456957568e-06,0.0,1759204943450856474
-5.792897637269926e-05,0.0,1759204943469620983
3.663661870977617e-05,0.0,1759204943490812313
-5.915468476666828e-05,0.0,1759204943509934958
-5.323921629000145e-05,0.0,1759204943528844950
-1.216943080710786e-05,0.0,1759204943550819857
-5.924709045868581e-05,0.0,1759204943569859319
9.54371576645564e-06,0.0,1759204943590485962
-6.005532624553966e-05,0.0,1759204943609900665
0.00010958840221376843,0.0,1759204943629959553
-4.161186562040399e-05,0.0,1759204943649618801
-6.967696285041332e-05,0.0,1759204943669696357
-0.0002442901448075439,0.0,1759204943690201910
-9.467691520521318e-05,0.0,1759204943709702135
-5.5933613314515854e-05,0.0,1759204943729834357
-0.00022182104967435093,0.0,1759204943749933442
-6.023983402085489e-05,0.0,1759204943769641247
7.308271056994701e-05,0.0,1759204943789893012
8.200653621179956e-06,0.0,1759204943809633981
7.3805882590619604e-06,0.0,1759204943828620391
5.538769787157663e-05,0.0,1759204943850990645
-1.5475300646436237e-06,0.0,1759204943869623375
8.913446544851769e-05,0.0,1759204943890535698
-1.1987088430127958e-05,0.0,1759204943909678745
5.10966143476431e-05,0.0,1759204943930783297
4.598695291287879e-05,0.0,1759204943948607073
-2.6210052390949043e-05,0.0,1759204943969852109
9.320122363526436e-05,0.0,1759204943990081486
-2.4467792549182703e-05,0.0,1759204944009622507
0.0002103307688292255,0.0,1759204944030116493
-1.4296281148248359e-05,0.0,1759204944049869296
-5.962113764929217e-05,0.0,1759204944069937787
2.8552127291166513e-05,0.0,1759204944090872834
-6.050928808739521e-05,0.0,1759204944109871043
8.247245916006936e-07,0.0,1759204944131215242
7.422521324406243e-07,0.0,1759204944148644346
-6.129422151704746e-05,0.0,1759204944169718493
5.1676675501844617e-05,0.0,1759204944189852231
-5.0153171512288054e-05,0.0,1759204944209848005
0.0001690520589285782,0.0,1759204944230054394
-3.430999999016316e-05,0.0,1759204944249822287
-7.330945853123634e-05,0.0,1759204944269940946
1.2513910455437557e-05,0.0,1759204944289883044
-6.450628207192854e-05,0.0,1759204944309595286
0.00013433529538234426,0.0,1759204944329925111
-4.515380598825344e-05,0.0,1759204944349639455
-7.801171471430435e-05,0.0,1759204944369983301
3.2163743356964644e-06,0.0,1759204944390239264
-6.734322773237453e-05,0.0,1759204944409879103
-6.060890495913707e-05,0.0,1759204944428966642
-2.7110435099703248e-05,0.0,1759204944451278714
-6.315553588287594e-05,0.0,1759204944469959985
1.34510563020953e-05,0.0,1759204944489977559
-5.518221098884716e-05,0.0,1759204944509631519
0.00012474745145322924,0.0,1759204944530030459
-3.668291719555628e-05,0.0,1759204944549991429
