loc_acc_x,loc_acc_y,stamp
0.0,0.0,1759220274192184575
0.0,0.0,1759220274300246083
0.0,0.0,1759220274325518776
0.0,0.0,1759220274336023191
1.6534486436287761e-06,0.0,1759220274362885818
-2.625455817268109e-07,0.0,1759220274378808711
-2.362910235541298e-07,0.0,1759220274394798625
-1.5855356875437245e-05,0.0,1759220274417205391
-1.4269821187893522e-05,0.0,1759220274435501412
-1.6582374328008767e-05,0.0,1759220274462815363
2.3453493377800648e-06,0.0,1759220274478596262
2.110814404002058e-06,0.0,1759220274496144010
-2.042498282370087e-06,0.0,1759220274522932043
-1.8382484541330784e-06,0.0,1759220274534926025
-3.8231306212274765e-06,0.0,1759220274557224530
-3.440817559104729e-06,0.0,1759220274575369590
6.475267466877096e-06,0.0,1759220274599284576
8.401045986902164e-07,0.0,1759220274622117241
7.560941388211948e-07,0.0,1759220274636208188
4.747173195570313e-07,0.0,1759220274662156289
4.2724558760132817e-07,0.0,1759220274674787622
-7.725904607685374e-06,0.0,1759220274698137940
5.0481030672506695e-06,0.0,1759220274719170197
4.543292760525603e-06,0.0,1759220274736404736
3.5780401572567697e-06,0.0,1759220274762896965
9.436717171246815e-06,0.0,1759220274778868182
8.493045454122133e-06,0.0,1759220274795024475
5.3547286348978906e-06,0.0,1759220274817137600
4.819255771408102e-06,0.0,1759220274835569364
3.0979435141736016e-06,0.0,1759220274863346937
2.7881491627562415e-06,0.0,1759220274876339458
-1.6538145204339776e-06,0.0,1759220274903449432
8.77160663218947e-06,0.0,1759220274919073102
7.894445968970523e-06,0.0,1759220274934931095
6.730186590459062e-06,0.0,1759220274956905421
8.957253049255587e-06,0.0,1759220274979617410
0.0001737039812570877,0.0,1759220274999956102
2.9195336638488198e-05,0.0,1759220275018888732
2.6275802974639378e-05,0.0,1759220275035993825
4.414098677040564e-05,0.0,1759220275060414668
3.972688809336508e-05,0.0,1759220275074582311
8.745678528785682e-05,0.0,1759220275098848572
-7.593788043299215e-06,0.0,1759220275118707946
-6.834409238969294e-06,0.0,1759220275136221967
-2.404085270218219e-06,0.0,1759220275162675085
-4.231195940740123e-05,0.0,1759220275179994283
0.00010673606261209974,0.0,1759220275197851444
-1.202652521153298e-05,0.0,1759220275218223895
-1.0823872690379682e-05,0.0,1759220275234748714
1.5908359848263926e-06,0.0,1759220275263185770
-4.483929279113206e-05,0.0,1759220275279197012
-4.0355363512018855e-05,0.0,1759220275296208648
-2.2237186451565732e-05,0.0,1759220275323022626
-2.001346780640916e-05,0.0,1759220275336017417
-7.3932814782304946e-06,0.0,1759220275360328503
-6.653953330407445e-06,0.0,1759220275375033384
2.5326394884661856e-05,0.0,1759220275403399695
-5.402409688061093e-05,0.0,1759220275419165366
-4.862168719254984e-05,0.0,1759220275435831328
-3.999986397324152e-05,0.0,1759220275457179556
-6.306208548249837e-05,0.0,1759220275475758775
3.9857205139165937e-05,0.0,1759220275495970017
-4.5094673427182676e-05,0.0,1759220275516015189
-4.0585206084464406e-05,0.0,1759220275534714878
-2.544631514166875e-05,0.0,1759220275557080177
-2.2901683627501873e-05,0.0,1759220275574810541
-0.00011797543071819357,0.0,1759220275597059127
-6.262840576210031e-05,0.0,1759220275615961242
-5.6365565185890276e-05,0.0,1759220275634813957
-6.032363326874564e-05,0.0,1759220275656795639
-5.429126994187108e-05,0.0,1759220275675009978
-2.5379955193216467e-05,0.0,1759220275696450040
-4.057464643456655e-05,0.0,1759220275717426713
-3.651718179110989e-05,0.0,1759220275734893053
-3.747753185716003e-05,0.0,1759220275756943333
-3.372977867144403e-05,0.0,1759220275774635738
-6.345144219581435e-05,0.0,1759220275797202165
-8.881884692369051e-06,0.0,1759220275815626925
-7.993696223132146e-06,0.0,1759220275834651818
-1.1356317317032243e-05,0.0,1759220275857228326
-1.0220685585329019e-05,0.0,1759220275874661085
-4.003199881211396e-05,0.0,1759220275896979852
8.151499438391011e-06,0.0,1759220275915773457
7.33634949455191e-06,0.0,1759220275934597120
2.770405535866463e-06,0.0,1759220275957460534
2.1469623396169058e-05,0.0,1759220275975990587
-5.2079559933526195e-05,0.0,1759220275996153269
1.3819114711732352e-05,0.0,1759220276015650231
1.2437203240559117e-05,0.0,1759220276034609890
2.7967553391412977e-06,0.0,1759220276057072524
2.5170798052271682e-06,0.0,1759220276074945848
2.4195643461557184e-05,0.0,1759220276096273152
8.75878618257517e-06,0.0,1759220276116747004
7.882907564317654e-06,0.0,1759220276134666963
4.450559853764368e-06,0.0,1759220276156973646
4.005503868387931e-06,0.0,1759220276174601282
0.00010526048413054128,0.0,1759220276196827242
3.66004527492838e-05,0.0,1759220276216075769
3.294040747435542e-05,0.0,1759220276234623232
4.0712047300026674e-05,0.0,1759220276257702663
5.1262072337533016e-06,0.0,1759220276275832959
4.613586510377971e-06,0.0,1759220276294728891
2.3083943257466336e-05,0.0,1759220276317321217
2.0775548931719704e-05,0.0,1759220276334876685
3.3253526003758414e-05,0.0,1759220276356989531
2.9928173403382574e-05,0.0,1759220276374975858
-6.279999984806504e-05,0.0,1759220276397190715
-2.5288520820939e-05,0.0,1759220276415789104
-2.2759668738845102e-05,0.0,1759220276434647927
-2.9238601994524315e-05,0.0,1759220276457726603
-7.627235260834885e-06,0.0,1759220276476054639
-7.981186585229772e-05,0.0,1759220276496248744
-9.452106836144129e-06,0.0,1759220276515836532
-8.506896152529716e-06,0.0,1759220276534948954
-1.6618422234525998e-05,0.0,1759220276557186192
-1.49565800110734e-05,0.0,1759220276574694682
8.789473201802155e-06,0.0,1759220276596392727
-5.700353188656957e-06,0.0,1759220276616950521
-5.130317869791261e-06,0.0,1759220276634650497
-7.436376662804243e-06,0.0,1759220276657080818
-6.6927389965238195e-06,0.0,1759220276674859651
1.1731170526046981e-05,0.0,1759220276696106579
-1.7242781161012505e-06,0.0,1759220276717145805
-1.5518503044911254e-06,0.0,1759220276735030556
-4.8138361319049915e-06,0.0,1759220276756926897
-4.332452518714492e-06,0.0,1759220276774605296
-2.77360309661628e-05,0.0,1759220276797472434
1.0021095742397301e-05,0.0,1759220276815999616
9.018986168157571e-06,0.0,1759220276835078805
4.889293615401576e-06,0.0,1759220276856918961
4.400364253861418e-06,0.0,1759220276874694200
1.8872651801192706e-05,0.0,1759220276896406827
5.7634511630753274e-06,0.0,1759220276917057152
5.187106046767795e-06,0.0,1759220276934765263
1.753083758434012e-06,0.0,1759220276958141743
1.5777753825906109e-06,0.0,1759220276974827370
1.584953438326283e-05,0.0,1759220276995984587
5.303608005716607e-05,0.0,1759220277016974419
4.773247205144946e-05,0.0,1759220277035083466
5.505232481196845e-05,0.0,1759220277057111578
1.7297471673428926e-05,0.0,1759220277076155551
0.00014668849105121593,0.0,1759220277096036865
2.308493656070037e-05,0.0,1759220277115840016
2.0776442904630332e-05,0.0,1759220277134705481
3.458439036243541e-05,0.0,1759220277157188576
3.112595132619187e-05,0.0,1759220277175003314
7.482699033385632e-05,0.0,1759220277197158113
-6.044175008633411e-06,0.0,1759220277216364299
-5.43975750777007e-06,0.0,1759220277235053327
2.2914046168975098e-07,0.0,1759220277256978180
2.0622641552077587e-07,0.0,1759220277274893707
-3.226138630519497e-05,0.0,1759220277295783929
-6.977849526727757e-06,0.0,1759220277316807913
-6.280064574054982e-06,0.0,1759220277334614109
3.959231643176895e-07,0.0,1759220277357154579
3.5633084788592056e-07,0.0,1759220277374634572
-2.905846763884671e-05,0.0,1759220277395838249
-5.413920171100383e-05,0.0,1759220277416919836
-4.872528153990344e-05,0.0,1759220277434780325
-5.306899254283045e-05,0.0,1759220277457179126
-4.776209328854741e-05,0.0,1759220277475027818
-2.327317441095402e-05,0.0,1759220277496166854
-3.68012960141662e-05,0.0,1759220277516731901
-3.312116641274958e-05,0.0,1759220277535243323
-3.413479244164998e-05,0.0,1759220277557293752
-3.072131319748498e-05,0.0,1759220277576053140
6.697657855467073e-05,0.0,1759220277597457304
6.0902801394840565e-06,0.0,1759220277616015362
5.481252125535651e-06,0.0,1759220277635031535
1.6223767109761394e-05,0.0,1759220277657042010
-1.3464842972469713e-05,0.0,1759220277675809914
-9.1567491840022e-05,0.0,1759220277696269856
-3.479471974931716e-05,0.0,1759220277716176355
-3.131524777438544e-05,0.0,1759220277735162208
-4.2549330862031e-05,0.0,1759220277757359283
-3.82943977758279e-05,0.0,1759220277774894833
6.933630315764637e-05,0.0,1759220277796991097
8.519733440712052e-06,0.0,1759220277815993957
7.667760096640847e-06,0.0,1759220277834969106
1.759396782140818e-05,0.0,1759220277857174951
1.5834571039267363e-05,0.0,1759220277874637032
-1.4094701801570522e-05,0.0,1759220277896118876
8.546448359344547e-06,0.0,1759220277917312968
7.691803523410093e-06,0.0,1759220277934853352
1.2846583557143067e-05,0.0,1759220277957303423
1.156192520142876e-05,0.0,1759220277974618578
-1.7100932835194125e-05,0.0,1759220277996108573
5.092791546208293e-06,0.0,1759220278016574484
4.583512391587464e-06,0.0,1759220278034678574
9.737873956734986e-06,0.0,1759220278056836663
8.764086561061488e-06,0.0,1759220278074847902
-1.8289775977070388e-05,0.0,1759220278096069849
2.8696862909653336e-06,0.0,1759220278116625780
2.5827176618688003e-06,0.0,1759220278134959588
7.53000871136676e-06,0.0,1759220278157401694
6.777007840230084e-06,0.0,1759220278174557957
-8.325105477723457e-05,0.0,1759220278196933515
-3.1785755560252955e-05,0.0,1759220278215666236
-2.860718000422766e-05,0.0,1759220278234664940
-3.600750162910186e-05,0.0,1759220278256701335
-3.2406751466191676e-05,0.0,1759220278274949935
-6.940177997257984e-05,0.0,1759220278296727706
-9.733165461689729e-06,0.0,1759220278315658577
-8.759848915520757e-06,0.0,1759220278334671587
-1.3136418803737022e-05,0.0,1759220278356803966
-1.182277692336332e-05,0.0,1759220278374653638
1.3216614693401084e-05,0.0,1759220278395858972
-5.018137652928747e-06,0.0,1759220278417402001
-4.516323887635873e-06,0.0,1759220278435195353
-8.941213450284033e-06,0.0,1759220278457026801
-8.04709210525563e-06,0.0,1759220278474667214
1.5113910085429465e-05,0.0,1759220278496069603
-2.7294269792976967e-06,0.0,1759220278517035531
-2.456484281367927e-06,0.0,1759220278535219851
-6.883663962066847e-06,0.0,1759220278556829501
-6.195297565860163e-06,0.0,1759220278574820909
1.6032941799671346e-05,0.0,1759220278595824800
4.791933349050782e-05,0.0,1759220278617212504
4.312740014145704e-05,0.0,1759220278634794553
4.96000168136121e-05,0.0,1759220278657210364
1.8473304959950068e-05,0.0,1759220278676380450
1.6625974463955062e-05,0.0,1759220278695019818
3.191054762575163e-05,0.0,1759220278717356703
2.8719492863176467e-05,0.0,1759220278734643262
3.8988926890070434e-05,0.0,1759220278756798172
3.509003420106339e-05,0.0,1759220278774676929
-6.288479375199733e-05,0.0,1759220278797116088
-1.8256794046109046e-05,0.0,1759220278816359382
-1.6431114641498144e-05,0.0,1759220278834976682
-2.4721641980362312e-05,0.0,1759220278856862494
-2.2249477782326083e-05,0.0,1759220278875039034
-5.5633521115677696e-05,0.0,1759220278897347016
-5.842107616748699e-07,0.0,1759220278915925623
-5.25789685507383e-07,0.0,1759220278934986346
-5.19456581019364e-06,0.0,1759220278957325681
-4.675109229174276e-06,0.0,1759220278975159723
1.7699627244081366e-05,0.0,1759220278995905040
1.1307467945131353e-07,0.0,1759220279016999334
1.0176721150618218e-07,0.0,1759220279034912315
-4.238138207248819e-06,0.0,1759220279057776017
1.7545991609750582e-05,0.0,1759220279075671645
1.5791392448775525e-05,0.0,1759220279094653581
2.2280502700295446e-06,0.0,1759220279117071935
2.0052452430265903e-06,0.0,1759220279134844912
-7.709021953235733e-06,0.0,1759220279156827263
-6.93811975791216e-06,0.0,1759220279174871691
1.8229894170354413e-05,0.0,1759220279195844659
2.5144336735654475e-06,0.0,1759220279217332849
2.262990306208903e-06,0.0,1759220279234988556
-1.0922100855126565e-06,0.0,1759220279256850040
1.7672224444992617e-05,0.0,1759220279275601046
1.5905002000493356e-05,0.0,1759220279295036568
3.745286270386679e-06,0.0,1759220279317226890
3.3707576433480113e-06,0.0,1759220279334715453
-5.370426894460521e-06,0.0,1759220279357041909
-4.8333842050144685e-06,0.0,1759220279374996247
1.700238115946e-05,0.0,1759220279396151263
2.5723284694202475e-06,0.0,1759220279417392078
2.315095622478223e-06,0.0,1759220279434855856
-6.310187787426388e-07,0.0,1759220279457827920
1.6824397673926738e-05,0.0,1759220279475850494
-4.7550689631340996e-05,0.0,1759220279495818525
8.94287297870164e-06,0.0,1759220279515914321
8.048585680831476e-06,0.0,1759220279534793503
-1.8595362355743112e-07,0.0,1759220279557271937
-1.6735826120168802e-07,0.0,1759220279574666459
1.9268744018936022e-05,0.0,1759220279595869327
6.034636707215421e-06,0.0,1759220279616929439
5.431173036493879e-06,0.0,1759220279635037717
2.383314599632612e-06,0.0,1759220279657209451
1.7250450964126755e-05,0.0,1759220279675950614
1.552540586771408e-05,0.0,1759220279694751985
5.387977078650481e-06,0.0,1759220279716870923
4.849179370785433e-06,0.0,1759220279734937646
-2.4862808570421472e-06,0.0,1759220279756784552
-2.2376527713379328e-06,0.0,1759220279774842488
-2.2161206546998377e-05,0.0,1759220279796917615
1.2058808240152312e-05,0.0,1759220279815742946
1.0852927416137082e-05,0.0,1759220279834734939
7.53963232595691e-06,0.0,1759220279857022373
6.7856690933612194e-06,0.0,1759220279874660509
1.9825755675707875e-05,0.0,1759220279895955571
8.177418754106314e-06,0.0,1759220279916693178
7.359676878695683e-06,0.0,1759220279934963295
3.94252419033474e-06,0.0,1759220279956879121
3.5482717713012657e-06,0.0,1759220279974568513
-1.5746851395054624e-05,0.0,1759220279997089592
1.2835046867803616e-05,0.0,1759220280015684723
1.1551542181023254e-05,0.0,1759220280035002127
7.81325128572485e-06,0.0,1759220280056907976
1.8576832065207207e-05,0.0,1759220280075849321
-2.7968360240020018e-05,0.0,1759220280095955950
1.2151800800411167e-05,0.0,1759220280115872102
1.093662072037005e-05,0.0,1759220280134845918
4.47192844539433e-06,0.0,1759220280157363431
4.024735600854898e-06,0.0,1759220280174829606
-1.2318077873378994e-05,0.0,1759220280197401023
1.5464788948719465e-05,0.0,1759220280215622255
1.3918310053847518e-05,0.0,1759220280235083123
1.0695616295284915e-05,0.0,1759220280256841025
2.0232131062969876e-05,0.0,1759220280275983146
1.820891795667289e-05,0.0,1759220280295003885
1.0154876981894439e-05,0.0,1759220280316830967
9.139389283704996e-06,0.0,1759220280334749478
3.41521818375506e-06,0.0,1759220280357014614
1.5430166172816396e-05,0.0,1759220280375585038
-2.5111087303592982e-05,0.0,1759220280396220089
1.2242926454054754e-05,0.0,1759220280415700108
1.101863380864928e-05,0.0,1759220280434798987
5.758376326905105e-06,0.0,1759220280456995523
5.182538694214595e-06,0.0,1759220280474922891
1.6619509007561386e-05,0.0,1759220280496435834
7.947128997637591e-06,0.0,1759220280517186923
7.152416097873832e-06,0.0,1759220280535165601
4.933096588591519e-06,0.0,1759220280557376747
4.439786929732367e-06,0.0,1759220280574605933
-9.360024532021802e-06,0.0,1759220280597140208
1.0953835566479746e-05,0.0,1759220280615946138
9.858452009831772e-06,0.0,1759220280635038105
7.076440768616612e-06,0.0,1759220280657392429
1.4846396094919433e-05,0.0,1759220280675911920
-1.8665757716235925e-05,0.0,1759220280696015776
9.502109101965297e-06,0.0,1759220280716377059
8.551898191768767e-06,0.0,1759220280735079000
3.7682889799106594e-06,0.0,1759220280756877862
3.3914600819195936e-06,0.0,1759220280774800319
-8.568480551933543e-06,0.0,1759220280797179101
1.070576770934381e-05,0.0,1759220280816119521
9.635190938409428e-06,0.0,1759220280834997478
7.3721957044792e-06,0.0,1759220280857009231
1.443917002982653e-05,0.0,1759220280875673910
1.2995253026843877e-05,0.0,1759220280894680962
7.2393023604891916e-06,0.0,1759220280916794260
6.515372124440273e-06,0.0,1759220280934717117
2.3971634574210516e-06,0.0,1759220280957048035
2.1574471116789467e-06,0.0,1759220280974823254
1.0780882774181894e-05,0.0,1759220280996271450
5.5048558541517066e-05,0.0,1759220281018025570
4.954370268736536e-05,0.0,1759220281034838688
5.7465374215027434e-05,0.0,1759220281056973329
1.1505671493808839e-05,0.0,1759220281075881176
1.0355104344427955e-05,0.0,1759220281095020540
3.4467416402793086e-05,0.0,1759220281116882934
3.102067476251378e-05,0.0,1759220281135077931
4.7115001438801266e-05,0.0,1759220281157285173
4.240350129492114e-05,0.0,1759220281174771814
9.450478995784008e-05,0.0,1759220281197311916
-5.7039414373625115e-06,0.0,1759220281215974313
-5.13354729362626e-06,0.0,1759220281234598984
1.6188462647872703e-06,0.0,1759220281257237915
1.4569616383085433e-06,0.0,1759220281274896352
5.7210073495702514e-05,0.0,1759220281297107157
-2.7171720136491252e-05,0.0,1759220281316173972
-2.4454548122842128e-05,0.0,1759220281335348041
-1.4538170715809987e-05,0.0,1759220281357240245
-1.3084353644228988e-05,0.0,1759220281374580570
-4.7047306159735204e-05,0.0,1759220281395912155
-1.6956524153775344e-05,0.0,1759220281417091062
-1.526087173839781e-05,0.0,1759220281434906557
-6.391964476357988e-06,0.0,1759220281456828884
-5.7527680287221895e-06,0.0,1759220281474609934
-3.813587030421612e-05,0.0,1759220281496299733
-1.0148282022677406e-05,0.0,1759220281517367193
-3.896969776121572e-05,0.0,1759220281536109962
3.1165870941097525e-07,0.0,1759220281556144857
-2.9387049081225543e-05,0.0,1759220281575941904
-2.644834417310299e-05,0.0,1759220281594640243
-5.652160485310499e-06,0.0,1759220281617292305
-5.086944436779449e-06,0.0,1759220281634760265
9.59341413660237e-06,0.0,1759220281657614202
8.634072722942134e-06,0.0,1759220281674576798
-2.842395835011849e-05,0.0,1759220281696295437
-3.5921681220133665e-06,0.0,1759220281717264433
-3.23295130981203e-06,0.0,1759220281735114209
1.8307033781545008e-06,0.0,1759220281757531557
1.6476330403390507e-06,0.0,1759220281774645706
-8.203587009140299e-05,0.0,1759220281797230693
-3.8020156873756544e-05,0.0,1759220281815695468
-3.421814118638089e-05,0.0,1759220281834920052
-3.996265538753895e-05,0.0,1759220281857679553
-1.538672198568053e-05,0.0,1759220281875996889
-9.383596505548473e-05,0.0,1759220281896378503
-1.4997802241480866e-05,0.0,1759220281915746367
-1.349802201733278e-05,0.0,1759220281934749944
-2.1943834203661274e-05,0.0,1759220281957358332
-1.9749450783295146e-05,0.0,1759220281974623584
7.663779611589733e-06,0.0,1759220281995739768
-7.902623690714261e-06,0.0,1759220282016987671
-7.112361321642835e-06,0.0,1759220282034720035
-9.7161036287108e-06,0.0,1759220282056811235
-8.74449326583972e-06,0.0,1759220282074593507
1.1957533962722346e-05,0.0,1759220282096115120
-3.39554331279577e-06,0.0,1759220282117140732
-3.055988981516193e-06,0.0,1759220282134666342
-6.623765795812922e-06,0.0,1759220282157052104
-5.96138921623163e-06,0.0,1759220282175031064
-3.322510543011003e-05,0.0,1759220282196998906
9.13026516833261e-06,0.0,1759220282215828780
8.21723865149935e-06,0.0,1759220282235063950
3.6563680056433107e-06,0.0,1759220282256980405
3.2907312050789796e-06,0.0,1759220282274698880
-2.36530367754492e-05,0.0,1759220282296889892
1.4674042467936478e-05,0.0,1759220282316199507
1.320663822114283e-05,0.0,1759220282334743780
8.307030840137554e-06,0.0,1759220282356842127
2.3466602983671605e-05,0.0,1759220282375994335
0.00014908490203496168,0.0,1759220282396435616
4.3318717555818265e-05,0.0,1759220282415962255
3.898684580023644e-05,0.0,1759220282434698350
5.572836800114256e-05,0.0,1759220282457202925
5.0155531201028304e-05,0.0,1759220282474957736
9.399181811413815e-05,0.0,1759220282496828543
1.0946363497902676e-05,0.0,1759220282516030273
9.85172714811241e-06,0.0,1759220282534743988
1.4279579370903727e-05,0.0,1759220282556734851
-1.8463118744107953e-05,0.0,1759220282575585078
-1.661680686969716e-05,0.0,1759220282594746471
2.9995367806063746e-06,0.0,1759220282617006600
2.6995831025457373e-06,0.0,1759220282634889929
1.6825313420305377e-05,0.0,1759220282656815364
1.5142782078274839e-05,0.0,1759220282674814772
-2.1549378683124907e-05,0.0,1759220282696625983
2.7087566693865533e-06,0.0,1759220282716839388
2.437881002447898e-06,0.0,1759220282735132447
6.906780659600226e-06,0.0,1759220282757421376
-2.2748628910722053e-05,0.0,1759220282775591492
-2.0473766019649847e-05,0.0,1759220282794642430
-5.003383580890433e-05,0.0,1759220282817075402
-4.50304522280139e-05,0.0,1759220282835160334
-5.633562679025336e-05,0.0,1759220282856791508
-5.070206411122803e-05,0.0,1759220282875030632
-1.9960227696862838e-05,0.0,1759220282896356597
1.89392439173438e-05,0.0,1759220282916742391
1.7045319525609422e-05,0.0,1759220282934660040
2.5671633667023643e-05,0.0,1759220282956969914
2.310447030032128e-05,0.0,1759220282975073152
6.206205497180489e-05,0.0,1759220282997168508
-2.544852190012013e-06,0.0,1759220283015678665
-2.290366971010812e-06,0.0,1759220283035101825
3.480053142422544e-06,0.0,1759220283056841101
3.13204782818029e-06,0.0,1759220283074702688
4.0958084144128205e-05,0.0,1759220283097304091
-1.7668661730521704e-05,0.0,1759220283116125325
-3.735432661129836e-05,0.0,1759220283136011995
-6.3323469660056055e-06,0.0,1759220283155963360
-5.699112269405045e-06,0.0,1759220283174592239
3.1915776622666406e-05,0.0,1759220283197528412
-2.4785433020948868e-05,0.0,1759220283215994794
-2.230688971885398e-05,0.0,1759220283235145723
-1.5409765606605143e-05,0.0,1759220283257080934
-3.6402164486689685e-05,0.0,1759220283275974043
-3.276194803802072e-05,0.0,1759220283294864665
-1.608594143913379e-05,0.0,1759220283317164750
-1.4477347295220411e-05,0.0,1759220283334719610
-2.579946830553489e-06,0.0,1759220283357085315
-2.32195214749814e-06,0.0,1759220283374825822
-2.929334471862694e-05,0.0,1759220283395843939
-1.027923169111476e-05,0.0,1759220283417038072
-9.251308522003286e-06,0.0,1759220283434796225
-4.698211213228244e-06,0.0,1759220283456982303
-4.2283900919054195e-06,0.0,1759220283474990700
-2.5054641543343214e-05,0.0,1759220283496536000
-6.837163363888398e-06,0.0,1759220283516833522
-6.153447027499559e-06,0.0,1759220283534685728
-1.398825947286831e-06,0.0,1759220283557398050
-1.258943352558148e-06,0.0,1759220283575010207
2.879686878297369e-05,0.0,1759220283597112577
-1.666142558602195e-05,0.0,1759220283615954897
-1.4995283027419756e-05,0.0,1759220283635119765
-9.4281976043548e-06,0.0,1759220283656886695
-2.6690612579854223e-05,0.0,1759220283675909552
4.728710894725253e-05,0.0,1759220283695841034
-1.6041603037209033e-05,0.0,1759220283716114909
-1.443744273348813e-05,0.0,1759220283734781532
-4.362768565262956e-06,0.0,1759220283757123319
-3.92649170873666e-06,0.0,1759220283774620607
-0.00011169187687550198,0.0,1759220283797100987
-4.1538675983783436e-05,0.0,1759220283816027951
-3.738480838540509e-05,0.0,1759220283834699253
-4.481958414779643e-05,0.0,1759220283857352974
-1.0527093615841346e-05,0.0,1759220283876300371
-0.00012880243747782444,0.0,1759220283896158008
-1.672202050709474e-05,0.0,1759220283916076225
-1.5049818456385267e-05,0.0,1759220283934646214
-2.7727150876121012e-05,0.0,1759220283957505494
-2.4954435788508912e-05,0.0,1759220283974819317
-6.59194024110828e-05,0.0,1759220283996814240
6.683669925190975e-06,0.0,1759220284016407519
6.015302932671877e-06,0.0,1759220284034995908
-5.227858620120199e-05,0.0,1759220284056782969
1.912554068243495e-05,0.0,1759220284075849263
-0.0002710750770541268,0.0,1759220284096594596
6.152378296542927e-06,0.0,1759220284115987261
5.537140466888634e-06,0.0,1759220284135025734
-3.091571294407333e-05,0.0,1759220284157943174
-2.7824141649666e-05,0.0,1759220284174856838
-0.00012964139135878162,0.0,1759220284197761133
5.618990071715112e-05,0.0,1759220284216476731
5.057091064543601e-05,0.0,1759220284235178387
3.467541804251858e-05,0.0,1759220284259525936
3.120787623826672e-05,0.0,1759220284275153502
-7.670518504156023e-05,0.0,1759220284297606116
8.373281727684904e-05,0.0,1759220284316169905
7.535953554916413e-05,0.0,1759220284334995194
5.5119210810258415e-05,0.0,1759220284357805701
0.00011119435906158556,0.0,1759220284377700066
-0.00014741858387529438,0.0,1759220284398351563
8.962576780848646e-05,0.0,1759220284416563458
8.066319102763782e-05,0.0,1759220284434940877
4.17730095228816e-05,0.0,1759220284457683443
3.7595708570593443e-05,0.0,1759220284475106894
0.00011078057706657808,0.0,1759220284496786174
5.253672388531327e-05,0.0,1759220284517268121
4.7283051496781944e-05,0.0,1759220284534768486
3.241172155921811e-05,0.0,1759220284557039611
2.9170549403296298e-05,0.0,1759220284574865668
-6.426666188037338e-05,0.0,1759220284596963786
6.944527269584402e-05,0.0,1759220284616052420
0.00011343316736880616,0.0,1759220284635651146
3.972637695500812e-05,0.0,1759220284656184131
8.935356893459577e-05,0.0,1759220284675638880
8.04182120411362e-05,0.0,1759220284695031304
3.989568652334269e-05,0.0,1759220284717348393
3.590611787100842e-05,0.0,1759220284734827891
6.158272076321336e-06,0.0,1759220284756868266
5.542444868689203e-06,0.0,1759220284774820876
-7.152860811068958e-05,0.0,1759220284797289188
6.142147000016076e-05,0.0,1759220284815743100
0.00010272309804653027,0.0,1759220284836015463
3.438312203876463e-05,0.0,1759220284856083858
7.994020488558968e-05,0.0,1759220284875637441
-0.00011567411777832677,0.0,1759220284896096692
5.635846200829477e-05,0.0,1759220284915942427
5.0722615807465296e-05,0.0,1759220284934839307
2.331093956966779e-05,0.0,1759220284957758671
8.116340398523027e-05,0.0,1759220284975930323
-0.00011535975743262043,0.0,1759220284996094078
5.854903490241039e-05,0.0,1759220285016014173
5.269413141216935e-05,0.0,1759220285035186180
2.7447408410992708e-05,0.0,1759220285057052444
2.4702667569893436e-05,0.0,1759220285074918612
7.92585694060377e-05,0.0,1759220285096412555
3.840646840084617e-05,0.0,1759220285117253058
3.456582156076155e-05,0.0,1759220285135049439
2.388455675943786e-05,0.0,1759220285156992272
2.1496101083494076e-05,0.0,1759220285174840753
-4.698407366323484e-05,0.0,1759220285197127937
4.857150944459723e-05,0.0,1759220285216144703
4.371435850013751e-05,0.0,1759220285234779296
3.078016041716072e-05,0.0,1759220285257511238
2.770214437544465e-05,0.0,1759220285274840453
6.704999434242197e-05,0.0,1759220285295716049
3.055631622270943e-05,0.0,1759220285316856376
2.750068460043849e-05,0.0,1759220285334734834
1.6968139367593964e-05,0.0,1759220285357294687
5.347893693429364e-05,0.0,1759220285375972219
4.8131043240864276e-05,0.0,1759220285394731567
2.1219379209064653e-05,0.0,1759220285417399844
1.909744128815819e-05,0.0,1759220285434870653
-2.2307063387440155e-07,0.0,1759220285457371629
4.479612522473081e-05,0.0,1759220285475765877
-0.0001022058188475123,0.0,1759220285496109683
3.271692794333699e-05,0.0,1759220285515707891
2.944523514900329e-05,0.0,1759220285535240626
1.1839320441113693e-05,0.0,1759220285557969786
1.0655388397002325e-05,0.0,1759220285574588851
5.3187669618128217e-05,0.0,1759220285596275926
-2.9411152059552714e-05,0.0,1759220285616754005
-2.6470036853597443e-05,0.0,1759220285634659325
-4.334119214461538e-05,0.0,1759220285657059592
4.113357424944761e-05,0.0,1759220285675963172
3.702021682450285e-05,0.0,1759220285695152108
-1.4296087433475492e-05,0.0,1759220285717116278
-1.2866478690127943e-05,0.0,1759220285734703923
-4.8261961329376344e-05,0.0,1759220285757292709
-4.343576519643871e-05,0.0,1759220285774699264
5.432840667964834e-05,0.0,1759220285796148011
4.5154670336968586e-05,0.0,1759220285817016050
4.063920330327173e-05,0.0,1759220285834673439
3.8291580447506645e-05,0.0,1759220285857249704
3.4462422402755985e-05,0.0,1759220285874635127
5.739284593408852e-05,0.0,1759220285896148245
3.418230381228683e-05,0.0,1759220285916818403
3.076407343105815e-05,0.0,1759220285934635375
2.301333142771762e-05,0.0,1759220285957041214
4.356705140611418e-05,0.0,1759220285975760884
0.00014568681823713607,0.0,1759220285996085753
6.080334087006443e-05,0.0,1759220286016059446
5.4723006783057986e-05,0.0,1759220286034926287
6.696842094462379e-05,0.0,1759220286056897317
6.027157885016141e-05,0.0,1759220286074809683
0.0002248439607388085,0.0,1759220286097465700
3.7204336878031674e-05,0.0,1759220286115845921
3.348390319022851e-05,0.0,1759220286134769723
4.853017019042584e-05,0.0,1759220286157120115
-2.940166229036066e-05,0.0,1759220286176094156
-2.6461496061324596e-05,0.0,1759220286194922030
-2.8662627845042426e-05,0.0,1759220286217281114
-2.5796365060538183e-05,0.0,1759220286234707158
-1.70972573568459e-05,0.0,1759220286257121734
-4.343343477958777e-05,0.0,1759220286275605847
-3.909009130162899e-05,0.0,1759220286295051435
-2.3180604372684797e-05,0.0,1759220286317121146
-2.086254393541632e-05,0.0,1759220286334706056
-9.76827097634153e-06,0.0,1759220286356804082
-8.791443878707376e-06,0.0,1759220286374762139
-3.438402695905393e-05,0.0,1759220286395918299
-1.7011091669303513e-05,0.0,1759220286417277289
-1.5309982502373162e-05,0.0,1759220286435104175
-1.06601053498632e-05,0.0,1759220286456715265
-2.8739832927362418e-05,0.0,1759220286475625084
-2.5865849634626178e-05,0.0,1759220286494926187
-1.238223636586033e-05,0.0,1759220286517243959
-1.1144012729274297e-05,0.0,1759220286534905108
-1.417236388522599e-06,0.0,1759220286557105112
-1.2755127496703392e-06,0.0,1759220286574676168
2.4116626765137797e-05,0.0,1759220286597158727
-1.9873370787988974e-05,0.0,1759220286615598207
-1.7886033709190076e-05,0.0,1759220286635041886
-1.331694455675087e-05,0.0,1759220286657086095
-2.898595368182335e-05,0.0,1759220286676093698
3.6415745807776915e-05,0.0,1759220286696140873
-2.0249280732277467e-05,0.0,1759220286716023065
-1.8224352659049722e-05,0.0,1759220286735056162
-8.694012150588536e-06,0.0,1759220286756928170
-7.824610935529683e-06,0.0,1759220286774685665
-2.668689133530602e-05,0.0,1759220286795891716
-1.2898366301854787e-05,0.0,1759220286817476036
-2.67354973256601e-05,0.0,1759220286836249003
-6.755883874421769e-06,0.0,1759220286855885735
-2.0433310613224946e-05,0.0,1759220286875678051
-1.838997955190245e-05,0.0,1759220286895048420
-7.961570312434023e-06,0.0,1759220286917042541
-7.165413281190621e-06,0.0,1759220286935126088
4.0364368170358473e-07,0.0,1759220286956893800
3.6327931353322625e-07,0.0,1759220286974657554
-1.702576148949431e-05,0.0,1759220286995936455
-5.473322598363423e-06,0.0,1759220287017474203
-4.925990338527081e-06,0.0,1759220287035138333
-2.1587060541693896e-06,0.0,1759220287056989293
-1.5042465246637429e-05,0.0,1759220287076009189
-1.3538218721973685e-05,0.0,1759220287094883736
-4.563893482222637e-06,0.0,1759220287116919695
-4.1075041340003736e-06,0.0,1759220287135048787
2.211116569480524e-06,0.0,1759220287157616140
1.9900049125324716e-06,0.0,1759220287174627708
0.00015333854656748825,0.0,1759220287197007617
1.0295551506976896e-05,0.0,1759220287216006750
9.265996356279206e-06,0.0,1759220287235087440
2.427657894710952e-05,0.0,1759220287257054201
2.184892105239857e-05,0.0,1759220287274691848
0.00011202703020086473,0.0,1759220287296936329
-2.5347741932445832e-05,0.0,1759220287315827760
-2.2812967739201248e-05,0.0,1759220287335163962
-5.869935077331942e-05,0.0,1759220287356935635
-5.2829415695987485e-05,0.0,1759220287374602548
-6.609152378347044e-05,0.0,1759220287395968955
-5.710779192007642e-05,0.0,1759220287416852583
-5.139701272806878e-05,0.0,1759220287434997585
-4.594215528364226e-05,0.0,1759220287457014121
-4.8186503893859346e-05,0.0,1759220287475838718
-4.336785350447341e-05,0.0,1759220287494717088
1.165194122545344e-05,0.0,1759220287517538902
1.0486747102908095e-05,0.0,1759220287534906043
4.087408228607539e-05,0.0,1759220287557119358
3.678667405746785e-05,0.0,1759220287574707730
-3.3115682460248657e-05,0.0,1759220287596048023
-4.173689580677493e-05,0.0,1759220287617217635
-3.756320622609744e-05,0.0,1759220287635151267
-3.911622049558228e-05,0.0,1759220287657168505
-4.005831848504366e-05,0.0,1759220287676020291
-3.605248663653929e-05,0.0,1759220287694875593
-3.122477997498255e-05,0.0,1759220287717411170
-2.8102301977484295e-05,0.0,1759220287734657198
-2.406120793760626e-05,0.0,1759220287757430774
-2.1655087143845635e-05,0.0,1759220287774641133
-1.530640123794661e-05,0.0,1759220287796859253
-2.0494335086394732e-05,0.0,1759220287815910796
-1.844490157775526e-05,0.0,1759220287835022623
-1.6152158534591393e-05,0.0,1759220287856762594
-1.4536942681132254e-05,0.0,1759220287874759160
-8.976064135836455e-06,0.0,1759220287896877036
-1.3992399657486048e-05,0.0,1759220287915682721
-1.2593159691737443e-05,0.0,1759220287935168229
-1.080760753833932e-05,0.0,1759220287957094575
-9.726846784505389e-06,0.0,1759220287974888234
-1.137634914375714e-05,0.0,1759220287996368192
-8.410325784213882e-06,0.0,1759220288017601673
-7.569293205792494e-06,0.0,1759220288035215868
-6.311392555463188e-06,0.0,1759220288057029132
-8.07647954095114e-06,0.0,1759220288075603769
-7.268831586856026e-06,0.0,1759220288095197909
-5.144440556612544e-06,0.0,1759220288117422481
-4.62999650095129e-06,0.0,1759220288135151431
-3.1122062659729658e-06,0.0,1759220288157598178
-2.8009856393756693e-06,0.0,1759220288174652776
6.390133917067979e-07,0.0,1759220288197038626
-4.377142802385832e-06,0.0,1759220288216124207
-3.939428522147249e-06,0.0,1759220288234926782
-3.2155039903335402e-06,0.0,1759220288257226876
-4.974890329503553e-06,0.0,1759220288276068491
-4.477401296553198e-06,0.0,1759220288294662144
-2.8574415604370427e-06,0.0,1759220288316896484
-2.5716974043933386e-06,0.0,1759220288335082580
-1.4165321350730834e-06,0.0,1759220288357257222
-1.2748789215657752e-06,0.0,1759220288374637923
0.00013107547662905965,0.0,1759220288397629863
9.862337755114141e-06,0.0,1759220288416139140
8.876103979602727e-06,0.0,1759220288434584160
2.241241144002059e-05,0.0,1759220288456838063
2.0171170296018532e-05,0.0,1759220288475035759
8.58532181480787e-05,0.0,1759220288498413038
-3.473765735513348e-05,0.0,1759220288515772769
-7.105459857110201e-05,0.0,1759220288536140211
-1.1604836034714324e-05,0.0,1759220288555841390
-1.0444352431242891e-05,0.0,1759220288574803133
-5.586153474792954e-05,0.0,1759220288595721098
-1.594821832599957e-05,0.0,1759220288617329340
-1.4353396493399614e-05,0.0,1759220288635096096
-2.973762530637564e-06,0.0,1759220288657068605
-4.665678190388235e-05,0.0,1759220288675952767
-4.199110371349412e-05,0.0,1759220288694911505
-1.1339679670029663e-05,0.0,1759220288717009971
-1.0205711703026697e-05,0.0,1759220288734817091
1.1706997235135907e-05,0.0,1759220288757097460
1.0536297511622316e-05,0.0,1759220288774626238
-4.24620252664698e-05,0.0,1759220288796132568
-5.747193106514707e-05,0.0,1759220288817034232
-5.198808227613714e-05,0.0,1759220288836020907
-5.4013507064192595e-05,0.0,1759220288856079734
-4.40750450959128e-05,0.0,1759220288876011372
-3.966754058632152e-05,0.0,1759220288894792911
-3.9974534950030014e-05,0.0,1759220288916894418
-3.5977081455027014e-05,0.0,1759220288935128765
-3.54678724493371e-05,0.0,1759220288956838957
-3.192108520440339e-05,0.0,1759220288974804734
-3.742197829404818e-05,0.0,1759220288996865328
-2.0160203300956517e-05,0.0,1759220289015948793
-1.8144182970860866e-05,0.0,1759220289034950745
-1.7296638038698347e-05,0.0,1759220289057127145
-1.556697423482851e-05,0.0,1759220289074632458
-2.2298936794823127e-05,0.0,1759220289097410316
-8.03959864418302e-06,0.0,1759220289116431641
-7.235638779764718e-06,0.0,1759220289135275585
-7.65865624321077e-06,0.0,1759220289157389422
-6.892790618889694e-06,0.0,1759220289174896904
-1.91567844667232e-05,0.0,1759220289197022581
-2.218435694898174e-06,0.0,1759220289215743975
3.6247275217753032e-06,0.0,1759220289236704043
-4.69340711113466e-06,0.0,1759220289256199722
2.235923952241719e-06,0.0,1759220289275654459
2.0123315570175474e-06,0.0,1759220289294824842
-2.2380923624875884e-06,0.0,1759220289317045241
-2.0142831262388297e-06,0.0,1759220289335041184
-4.832910431008278e-06,0.0,1759220289358130735
-4.349619387907451e-06,0.0,1759220289374636854
-1.3272216774297285e-05,0.0,1759220289397075165
3.1804712293354767e-06,0.0,1759220289415717575
8.615421960395884e-06,0.0,1759220289436136024
6.717315959003929e-07,0.0,1759220289456146620
6.404349720953242e-06,0.0,1759220289476453879
5.763914748857918e-06,0.0,1759220289494795618
1.5815130092721213e-06,0.0,1759220289517086606
1.4233617083449093e-06,0.0,1759220289535036211
-1.55794513902983e-06,0.0,1759220289557050006
-1.402150625126847e-06,0.0,1759220289574844984
5.8539711023904404e-06,0.0,1759220289596527854
9.032450798439369e-07,0.0,1759220289616860047
6.406813684084173e-06,0.0,1759220289635806070
-4.6939332954202565e-07,0.0,1759220289656487807
5.026577408411736e-06,0.0,1759220289675681758
-1.6024952481172816e-05,0.0,1759220289696175092
3.377938517269249e-06,0.0,1759220289715933349
3.0401446655423243e-06,0.0,1759220289734935585
2.6242839034753174e-06,0.0,1759220289757004710
2.3618555131277856e-06,0.0,1759220289774615284
6.6787181327362404e-06,0.0,1759220289796447391
3.579380417645712e-06,0.0,1759220289817010195
6.48018742626827e-06,0.0,1759220289836156612
2.082172535858781e-06,0.0,1759220289855921106
4.938561439821113e-06,0.0,1759220289876084162
4.444705295839002e-06,0.0,1759220289895016427
2.1525395241950174e-06,0.0,1759220289917261498
1.9372855717755158e-06,0.0,1759220289934615697
2.6749340091371114e-07,0.0,1759220289957158871
2.4074406082234e-07,0.0,1759220289974798016
3.949616852895605e-06,0.0,1759220289996342571
-6.645788531659247e-07,0.0,1759220290017013804
-5.981209678493322e-07,0.0,1759220290034619326
-1.5616169978217305e-06,0.0,1759220290056809079
3.0999827881378184e-06,0.0,1759220290076462453
2.7899845093240367e-06,0.0,1759220290094875607
-1.9349538587962934e-07,0.0,1759220290117575107
-1.741458472916664e-07,0.0,1759220290135226802
-2.3241461779685356e-06,0.0,1759220290157230309
-2.091731560171682e-06,0.0,1759220290174620669
-8.246823169452417e-06,0.0,1759220290197085433
2.784176613583516e-06,0.0,1759220290216296984
2.5057589522251646e-06,0.0,1759220290235062944
1.5353956321662452e-06,0.0,1759220290257206134
1.3818560689496206e-06,0.0,1759220290274615075
-4.983416257531865e-06,0.0,1759220290297298097
4.768372565035356e-06,0.0,1759220290315598445
4.291535308531821e-06,0.0,1759220290335223858
2.988236662045536e-06,0.0,1759220290356990853
2.6894129958409824e-06,0.0,1759220290374566998
6.371250934340151e-06,0.0,1759220290396346504
2.722781867494281e-06,0.0,1759220290416712453
2.450503680744853e-06,0.0,1759220290435008304
1.428882200717569e-06,0.0,1759220290458184141
1.2859939806458123e-06,0.0,1759220290474893833
4.957572541612991e-06,0.0,1759220290496193593
1.7069704987228717e-06,0.0,1759220290517399262
1.5362734488505846e-06,0.0,1759220290535053980
6.057678291572011e-07,0.0,1759220290557123636
5.451910462414811e-07,0.0,1759220290574687550
4.149874031859867e-06,0.0,1759220290595677212
1.1673531595702828e-06,0.0,1759220290617279984
4.2884594806685005e-06,0.0,1759220290635965212
1.0312537449199977e-08,0.0,1759220290656035145
3.204648055928757e-06,0.0,1759220290675934290
2.8841832503358815e-06,0.0,1759220290694719607
5.864301387266021e-07,0.0,1759220290717054009
5.277871248539419e-07,0.0,1759220290735256401
-1.15294384720009e-06,0.0,1759220290756927603
-1.037649462480081e-06,0.0,1759220290774947725
-5.6382531546488145e-06,0.0,1759220290797213750
2.2851795199345845e-06,0.0,1759220290816314979
2.056661567941126e-06,0.0,1759220290834804442
1.3342750236102227e-06,0.0,1759220290857111090
1.2008475212492004e-06,0.0,1759220290874604314
-3.540644405740384e-06,0.0,1759220290897134521
3.361165975580542e-06,0.0,1759220290916191360
3.025049378022488e-06,0.0,1759220290934782950
2.1235931838402243e-06,0.0,1759220290957935917
1.911233865456202e-06,0.0,1759220290974626891
4.657994393356005e-06,0.0,1759220290995983673
2.1010557916956516e-06,0.0,1759220291017397734
1.8909502125260864e-06,0.0,1759220291034627947
1.1028659697477191e-06,0.0,1759220291057438227
9.925793727729472e-07,0.0,1759220291074572661
3.664213579228614e-06,0.0,1759220291096190268
1.2717051995618953e-06,0.0,1759220291117177550
1.1445346796057058e-06,0.0,1759220291134947410
4.4714459429291893e-07,0.0,1759220291156971364
4.0243013486362706e-07,0.0,1759220291174850637
3.073130569292713e-06,0.0,1759220291195895819
8.3798378141692e-07,0.0,1759220291216785287
7.54185403275228e-07,0.0,1759220291235095087
1.2535475591001894e-07,0.0,1759220291257177564
1.1281928031901705e-07,0.0,1759220291275006831
-3.607800842007996e-06,0.0,1759220291297773816
2.2947744040636905e-06,0.0,1759220291315995774
2.0652969636573213e-06,0.0,1759220291334859218
1.345349757661725e-06,0.0,1759220291357322424
1.2108147818955525e-06,0.0,1759220291374623967
-2.4993248465230857e-06,0.0,1759220291397448104
2.8932292985496137e-06,0.0,1759220291415972603
4.617806014027291e-06,0.0,1759220291435977558
1.6064597384054205e-06,0.0,1759220291455974732
3.544713576230456e-06,0.0,1759220291476043685
-5.499585696181541e-06,0.0,1759220291495816653
2.2266239218396e-06,0.0,1759220291515645898
2.0039615296556402e-06,0.0,1759220291534864375
7.358768119093609e-07,0.0,1759220291556818573
6.622891307184248e-07,0.0,1759220291574554942
3.246117721808983e-06,0.0,1759220291595971717
1.3494430693324077e-06,0.0,1759220291617059426
3.2621425926677017e-06,0.0,1759220291636116241
5.521407989280853e-07,0.0,1759220291655788197
2.4157983956397555e-06,0.0,1759220291676234356
2.17421855607578e-06,0.0,1759220291695021538
7.451610543558096e-07,0.0,1759220291717021758
6.706449489202286e-07,0.0,1759220291735179740
-3.4793318905820344e-07,0.0,1759220291756799067
-3.131398701523831e-07,0.0,1759220291774906703
2.0419700065355026e-06,0.0,1759220291797927970
2.3888916349144018e-06,0.0,1759220291816825679
2.3753371673980066e-06,0.0,1759220291835953312
2.18664470825807e-06,0.0,1759220291855856120
1.9895997216332974e-06,0.0,1759220291875633130
1.7906397494699677e-06,0.0,1759220291894741753
1.6574374840150205e-06,0.0,1759220291917525632
1.4916937356135185e-06,0.0,1759220291935074935
1.3660033614687668e-06,0.0,1759220291957051327
1.2294030253218902e-06,0.0,1759220291975156513
1.1569821672734348e-06,0.0,1759220291997022105
9.600949834608446e-07,0.0,1759220292016044489
8.316281584317375e-07,0.0,1759220292036043131
7.85408759242247e-07,0.0,1759220292055954789
6.758822288130051e-07,0.0,1759220292075954701
7.199239510233087e-07,0.0,1759220292095868393
5.539608888161793e-07,0.0,1759220292115914269
4.985647999345614e-07,0.0,1759220292135276255
4.587234407818693e-07,0.0,1759220292158968374
4.1285109670368236e-07,0.0,1759220292175340748
3.386618007994036e-07,0.0,1759220292196049603
3.2112431812312677e-07,0.0,1759220292217088255
2.6591058600471976e-07,0.0,1759220292235836130
2.622282619717212e-07,0.0,1759220292256355071
2.360054357745491e-07,0.0,1759220292274787885
1.9076203186237857e-07,0.0,1759220292296458874
1.8403799712468244e-07,0.0,1759220292317163684
1.488190050477047e-07,0.0,1759220292335702443
1.5034686373352158e-07,0.0,1759220292356335579
1.3531217736016942e-07,0.0,1759220292375002341
1.0593443587577615e-07,0.0,1759220292395981552
1.0357311760901434e-07,0.0,1759220292417374094
8.18046276017737e-08,0.0,1759220292435994050
8.45665558385515e-08,0.0,1759220292455857914
6.658571579461788e-08,0.0,1759220292475662622
8.544278417150128e-08,0.0,1759220292496446425
5.394640386346927e-08,0.0,1759220292516382602
4.855176347712234e-08,0.0,1759220292535325791
4.3333742272869745e-08,0.0,1759220292557346870
3.900036804558277e-08,0.0,1759220292574741432
3.31118727723971e-08,0.0,1759220292597049881
2.5652861129526336e-08,0.0,1759220292615697944
2.1514535024626303e-08,0.0,1759220292636294102
1.8306327454386203e-08,0.0,1759220292655846393
1.6740774497578482e-08,0.0,1759220292675667121
1.5066697047820633e-08,0.0,1759220292694922399
1.0006113209928442e-08,0.0,1759220292717089154
1.2215253863242398e-08,0.0,1759220292736039736
2.0728360674455663e-09,0.0,1759220292755929670
1.8655524607010098e-09,0.0,1759220292774679751
-0.00013487983997582947,0.0,1759220292797152342
-1.865762756313146e-05,0.0,1759220292815686137
2.2550755844333383e-05,0.0,1759220292836079386
-3.558492573329478e-05,0.0,1759220292856097613
1.3336981303115036e-05,0.0,1759220292875929521
-0.00017305092081792127,0.0,1759220292895962444
-8.225779314095566e-07,0.0,1759220292915686148
-7.40320138268601e-07,0.0,1759220292935028585
-2.300972178338001e-05,0.0,1759220292957204645
-2.070874960504201e-05,0.0,1759220292974630473
-8.454770807792155e-05,0.0,1759220292997327097
3.08202974535201e-05,0.0,1759220293016037368
6.9366595129416e-05,0.0,1759220293035981072
1.205072782544982e-05,0.0,1759220293055889612
5.248113872590114e-05,0.0,1759220293075931561
4.723302485331103e-05,0.0,1759220293094658234
1.7392594207143873e-05,0.0,1759220293117193864
5.610027479739299e-05,0.0,1759220293136365829
-9.499486989634232e-06,0.0,1759220293156467180
4.022267558896044e-05,0.0,1759220293175624570
-0.00012668801954102864,0.0,1759220293196056095
2.5009535704115986e-05,0.0,1759220293216038432
6.184232964940084e-05,0.0,1759220293235780177
-1.0132548403743265e-06,0.0,1759220293256232329
-9.119293563368939e-07,0.0,1759220293275179387
4.879310413801539e-05,0.0,1759220293296279513
1.5342684465791655e-05,0.0,1759220293317147893
1.380841601921249e-05,0.0,1759220293334830207
6.145470406854615e-06,0.0,1759220293357201579
5.5309233661691534e-06,0.0,1759220293374876270
-5.058129055116369e-05,0.0,1759220293397198204
3.531946381984491e-05,0.0,1759220293415840208
6.312287559424008e-05,0.0,1759220293435688471
1.7506897626717955e-05,0.0,1759220293456085875
4.9096244250691306e-05,0.0,1759220293475556373
4.418661982562218e-05,0.0,1759220293494752276
1.9405086868540394e-05,0.0,1759220293517413459
5.067736006690353e-05,0.0,1759220293535805474
-2.6183903373553686e-06,0.0,1759220293555927606
3.605171733664943e-05,0.0,1759220293575770589
0.00010385262332154001,0.0,1759220293596233901
5.60618723491987e-05,0.0,1759220293616077990
4.0192640346247365e-05,0.0,1759220293636078517
6.16026604340402e-05,0.0,1759220293656150425
3.660684111451106e-05,0.0,1759220293675950357
3.294615700305995e-05,0.0,1759220293695095202
3.969317487685609e-05,0.0,1759220293717154891
1.89764791121673e-05,0.0,1759220293736437719
4.1815663882085406e-05,0.0,1759220293755970421
3.763409749387687e-05,0.0,1759220293774759650
5.691161049488702e-05,0.0,1759220293797275441
1.3144239922974596e-05,0.0,1759220293815838039
-2.8574601938389057e-06,0.0,1759220293836024912
1.5084982528095841e-05,0.0,1759220293856257826
-1.3465013729375842e-06,0.0,1759220293875968315
5.7111163709362116e-05,0.0,1759220293896125702
1.4586089642989279e-06,0.0,1759220293915683336
1.3127480678690352e-06,0.0,1759220293935003079
7.904135813665938e-06,0.0,1759220293958148625
7.113722232299344e-06,0.0,1759220293974623681
-1.104337651860746e-05,0.0,1759220293996748065
1.147843034674629e-06,0.0,1759220294017133357
-1.287955109377184e-05,0.0,1759220294035965789
3.998591739935241e-06,0.0,1759220294056395206
3.598732565941717e-06,0.0,1759220294074787282
-1.133265957230122e-05,0.0,1759220294095792158
-3.693260035320303e-07,0.0,1759220294117170530
-1.2744939594438223e-05,0.0,1759220294136011849
3.0107340812297154e-06,0.0,1759220294156386596
2.709660673106744e-06,0.0,1759220294174569291
2.2269254597886393e-05,0.0,1759220294197005340
-8.087333014862569e-06,0.0,1759220294215647046
-1.8167751909867513e-05,0.0,1759220294235868692
-2.662518967932089e-06,0.0,1759220294256396665
-1.4048116233971399e-05,0.0,1759220294276186896
-1.264330461057426e-05,0.0,1759220294294906566
-4.006862565706981e-06,0.0,1759220294316937948
-3.606176309136283e-06,0.0,1759220294334759322
2.2873891405013434e-06,0.0,1759220294357593559
2.0586502264512093e-06,0.0,1759220294375039783
1.8844159897292148e-05,0.0,1759220294397065758
-1.0229584248920517e-05,0.0,1759220294415919099
-9.206625824028465e-06,0.0,1759220294434963317
-6.385448264160535e-06,0.0,1759220294457226411
-5.7469034377444815e-06,0.0,1759220294474780435
1.1414564465740315e-05,0.0,1759220294496989858
-1.2995187462009706e-05,0.0,1759220294516136030
-2.1081508776477623e-05,0.0,1759220294536067390
-7.198130616970181e-06,0.0,1759220294556172719
-1.6494939410443557e-05,0.0,1759220294575664383
-1.4845445469399201e-05,0.0,1759220294594733608
-7.221070982358487e-06,0.0,1759220294617023284
-6.498963884122639e-06,0.0,1759220294634952789
-1.0263778963542083e-06,0.0,1759220294657273421
-9.237401067187876e-07,0.0,1759220294674639100
-1.2865434622466412e-05,0.0,1759220294696289522
-4.296835324984095e-06,0.0,1759220294717167448
-1.3585356262516219e-05,0.0,1759220294735654964
-1.6674882920338627e-06,0.0,1759220294755998994
-1.5007394628304765e-06,0.0,1759220294774740098
-1.0965053035646915e-05,0.0,1759220294796171825
-3.0832102113346605e-06,0.0,1759220294817259467
-1.1162094092240102e-05,0.0,1759220294836010779
-2.858540431820489e-08,0.0,1759220294856029867
-8.379244597365502e-06,0.0,1759220294875741007
-7.541320137628951e-06,0.0,1759220294894698730
-1.7484792142932331e-06,0.0,1759220294917587678
-1.57363129286391e-06,0.0,1759220294934936297
2.6902267080188685e-06,0.0,1759220294956849769
2.421204037216982e-06,0.0,1759220294974694554
-0.00012027279338809458,0.0,1759220294997049926
-2.630544569631731e-05,0.0,1759220295016017934
9.104252389452941e-06,0.0,1759220295035894985
-3.790359709864973e-05,0.0,1759220295056120890
4.376087155174415e-06,0.0,1759220295075682300
-0.00014748767237864432,0.0,1759220295096099714
-3.4630541491165775e-06,0.0,1759220295115955477
-3.11674873420492e-06,0.0,1759220295135169285
-2.200509645326606e-05,0.0,1759220295156893455
-1.9804586807939455e-05,0.0,1759220295174735280
2.9728989260061123e-05,0.0,1759220295196180377
5.108043659031465e-05,0.0,1759220295217598862
4.0566065026573465e-05,0.0,1759220295235823072
5.046937895236641e-05,0.0,1759220295255867634
4.542244105712977e-05,0.0,1759220295274632784
3.0211358267847368e-05,0.0,1759220295296384434
3.670595453098981e-05,0.0,1759220295316690686
2.245143663542569e-05,0.0,1759220295335745198
3.316475728824719e-05,0.0,1759220295356118533
2.984828155942247e-05,0.0,1759220295374597786
1.5427167600008958e-05,0.0,1759220295396117284
2.2346425637377505e-05,0.0,1759220295416997867
1.0034826310998162e-05,0.0,1759220295436096668
8.353359747912862e-06,0.0,1759220295544330008
7.518023773121576e-06,0.0,1759220295558705612
6.766221395809418e-06,0.0,1759220295574839761
-0.004122561135804279,0.0,1759220295596932666
-0.0005307844820839763,0.0,1759220295616031979
0.0006494076712139574,0.0,1759220295635987548
-0.00037524351359031355,0.0,1759220295656143929
-0.0003377191622312822,0.0,1759220295674976284
-0.0006359171012505279,0.0,1759220295697185159
0.0006309504310269458,0.0,1759220295715724518
0.0010296020426519806,0.0,1759220295735995972
0.0005307469683478838,0.0,1759220295756392961
0.00047767227151309543,0.0,1759220295774637067
0.0008256246909650464,0.0,1759220295796092259
0.0005364897362156422,0.0,1759220295817368294
0.0007734347487519488,0.0,1759220295836059827
0.000413009244401505,0.0,1759220295856225792
0.0006185239336692496,0.0,1759220295875955047
0.0005566715403023247,0.0,1759220295895024785
0.0003790006161661473,0.0,1759220295917090488
0.000557956485111839,0.0,1759220295935912433
0.00021792170358600444,0.0,1759220295956181285
0.000196129533227404,0.0,1759220295974956606
0.0004295844356670268,0.0,1759220295995807381
0.00024310372825782746,0.0,1759220296016824248
0.00040909770056843375,0.0,1759220296035711122
0.00017165963814607215,0.0,1759220296055792958
0.00032340102194892235,0.0,1759220296075744293
0.00029106091975403015,0.0,1759220296095166253
0.00016990114738265287,0.0,1759220296116870147
0.0003047765661532864,0.0,1759220296135931255
6.651179644626007e-05,0.0,1759220296156526992
0.00023168947871143576,0.0,1759220296176038248
-0.00026090546369886996,0.0,1759220296196492200
0.00019378388959164427,0.0,1759220296215891666
0.00028818272181810556,0.0,1759220296236290542
9.639008967316469e-05,0.0,1759220296255883669
8.675108070584822e-05,0.0,1759220296274897040
-6.219108460515491e-05,0.0,1759220296297134560
0.0001821289336936127,0.0,1759220296316207867
0.00026168612096124657,0.0,1759220296335715881
0.0001307745322475368,0.0,1759220296356184987
0.00011769707902278312,0.0,1759220296375061331
0.00020423189281193439,0.0,1759220296396043887
9.857839762054072e-05,0.0,1759220296416638102
0.00018218747463258426,0.0,1759220296436250452
4.833873373426235e-05,0.0,1759220296456047674
0.00013840587560941454,0.0,1759220296475642708
0.00012456528804847308,0.0,1759220296494729296
7.325429525052454e-05,0.0,1759220296516838061
0.0001400526559389042,0.0,1759220296536184411
1.94436950303281e-05,0.0,1759220296556633323
1.749932552729529e-05,0.0,1759220296575013100
0.00010702475274089473,0.0,1759220296596105262
2.5970747047239333e-05,0.0,1759220296617112187
0.0001071360480135616,0.0,1759220296636076435
-3.064040628071189e-07,0.0,1759220296655792875
7.651721078054363e-05,0.0,1759220296676500924
6.886548970248926e-05,0.0,1759220296695188124
1.5645631275051923e-05,0.0,1759220296717460356
1.4081068147546731e-05,0.0,1759220296735161287
-2.3142596589046668e-05,0.0,1759220296756740554
-2.0828336930142e-05,0.0,1759220296774897409
-0.00012334781238247363,0.0,1759220296797268206
5.9685860380434956e-05,0.0,1759220296816053952
0.00012172095114577834,0.0,1759220296835852746
3.072110419780436e-05,0.0,1759220296855885840
2.7648993778023926e-05,0.0,1759220296874881680
-7.473645557080287e-05,0.0,1759220296897643300
8.066345839794408e-05,0.0,1759220296916116944
0.00013007959410593156,0.0,1759220296936119519
4.5014660102264556e-05,0.0,1759220296955962236
0.00010055850724419736,0.0,1759220296975619556
9.050265651977762e-05,0.0,1759220296994676419
4.500456981911456e-05,0.0,1759220297016837732
9.570346344213416e-05,0.0,1759220297036661377
-1.447996691526527e-06,0.0,1759220297056205690
6.653646329890819e-05,0.0,1759220297075970693
5.988281696901737e-05,0.0,1759220297095027545
2.213208207692931e-05,0.0,1759220297117081603
7.723362755026366e-05,0.0,1759220297135983084
-8.341026856863135e-06,0.0,1759220297156537431
-7.506924171176822e-06,0.0,1759220297174595083
6.154091819689623e-05,0.0,1759220297196168429
1.648271043305081e-05,0.0,1759220297216774595
6.560471991146321e-05,0.0,1759220297235958870
2.1328349253103525e-06,0.0,1759220297256092792
5.0386453960633775e-05,0.0,1759220297275969188
4.53478085645704e-05,0.0,1759220297294930216
3.064176561414663e-05,0.0,1759220297316887929
5.7563936455026646e-05,0.0,1759220297335974212
1.0237745596342496e-05,0.0,1759220297355828641
4.191080454350968e-05,0.0,1759220297375833276
-0.00014893557355251857,0.0,1759220297396203717
1.724131030745869e-05,0.0,1759220297416272203
5.8954160798431257e-05,0.0,1759220297435697211
-1.1690156324092314e-05,0.0,1759220297456037030
4.207012816679369e-05,0.0,1759220297475770195
-0.00013554694929467345,0.0,1759220297496301569
2.985456098131403e-05,0.0,1759220297516016563
6.758304616548961e-05,0.0,1759220297536583101
-1.6981985718211257e-06,0.0,1759220297556183443
-1.5283787146390132e-06,0.0,1759220297574624040
-5.9477521480418065e-05,0.0,1759220297597040551
3.9093690316282876e-05,0.0,1759220297616514069
7.412441374878036e-05,0.0,1759220297635797546
2.280678805085167e-05,0.0,1759220297656208732
5.880356055442118e-05,0.0,1759220297675815721
5.292320449897906e-05,0.0,1759220297694993493
-2.7200290184021523e-05,0.0,1759220297717651178
6.065093213314244e-05,0.0,1759220297736129057
-7.929738645430582e-05,0.0,1759220297755888795
-7.136764780887524e-05,0.0,1759220297774672905
-4.40651253777197e-05,0.0,1759220297797509989
5.4511631886717525e-05,0.0,1759220297815891603
8.553146267206057e-05,0.0,1759220297836169367
4.197894003261152e-05,0.0,1759220297856189491
6.955517646774884e-05,0.0,1759220297875762767
6.259965882097396e-05,0.0,1759220297894750050
3.9464814330003007e-05,0.0,1759220297917200640
6.434284218315367e-05,0.0,1759220297935995279
1.5943746396466707e-05,0.0,1759220297956091579
1.4349371756820036e-05,0.0,1759220297974805059
-2.7643690942350158e-05,0.0,1759220297997392202
4.238192815981257e-05,0.0,1759220298015834455
6.439809389888274e-05,0.0,1759220298035689305
2.7452027383044648e-05,0.0,1759220298056042941
2.4706824644740183e-05,0.0,1759220298074981726
-1.8419747990271387e-05,0.0,1759220298096954037
4.078982933340397e-05,0.0,1759220298115926840
5.9356355558034654e-05,0.0,1759220298136124590
2.5460568747648234e-05,0.0,1759220298156869456
4.733083171525426e-05,0.0,1759220298176129971
-5.2685776898471575e-05,0.0,1759220298196185241
3.262865417998263e-05,0.0,1759220298216118877
5.1729131406277426e-05,0.0,1759220298236001333
1.1827618938240958e-05,0.0,1759220298256073709
3.8031851277201944e-05,0.0,1759220298276069658
3.422866614948175e-05,0.0,1759220298294965142
1.74373250666027e-05,0.0,1759220298317117927
3.931466398019318e-05,0.0,1759220298336184850
2.1897278297363626e-06,0.0,1759220298356219048
1.9707550467627265e-06,0.0,1759220298374598588
2.99628167006986e-05,0.0,1759220298396167920
1.0295957710520943e-05,0.0,1759220298416671919
3.0468112852747313e-05,0.0,1759220298435978758
3.092564664039119e-06,0.0,1759220298456090248
2.3411777239646867e-05,0.0,1759220298475740441
2.107059951568218e-05,0.0,1759220298495326758
6.580775349085403e-06,0.0,1759220298517160966
5.922697814176863e-06,0.0,1759220298534954071
-4.292600912782492e-06,0.0,1759220298557020428
-3.863340821504243e-06,0.0,1759220298574892952
2.1009175838237046e-05,0.0,1759220298596370195
-5.557354770765224e-05,0.0,1759220298616997089
1.7064587460857254e-05,0.0,1759220298635799498
-6.726160833236982e-05,0.0,1759220298656372533
-6.053544749913284e-05,0.0,1759220298674592579
-0.00016538130398129566,0.0,1759220298697055031
9.486449835098651e-06,0.0,1759220298715750183
7.01230967400716e-05,0.0,1759220298735880632
-1.5199035373748786e-05,0.0,1759220298755923060
-1.3679131836373907e-05,0.0,1759220298774609934
5.7608449363481865e-05,0.0,1759220298795939610
5.746710904430294e-05,0.0,1759220298816773986
6.795310593813468e-05,0.0,1759220298835967657
4.917781461312828e-05,0.0,1759220298856204254
4.426003315181545e-05,0.0,1759220298874686575
5.221394593601387e-05,0.0,1759220298896028872
3.972006639234067e-05,0.0,1759220298917448395
4.559092508324601e-05,0.0,1759220298936147093
2.9589297901955576e-05,0.0,1759220298956062627
2.6630368111760018e-05,0.0,1759220298974951963
3.4129016748029705e-05,0.0,1759220298996462525
-3.489666206732972e-05,0.0,1759220299016745658
2.1420928172383348e-05,0.0,1759220299036116790
-3.216483875949575e-05,0.0,1759220299055984775
1.6162861261469822e-05,0.0,1759220299075790361
1.454657513532284e-05,0.0,1759220299094857578
-1.1986717531860502e-05,0.0,1759220299117480035
3.136750796334203e-05,0.0,1759220299136232360
-3.407992271437352e-05,0.0,1759220299156359463
-3.067193044293617e-05,0.0,1759220299174810243
-0.00014185840400111457,0.0,1759220299197047868
8.371535927917352e-06,0.0,1759220299215978099
6.088297105273438e-05,0.0,1759220299236218284
-1.4181651089712769e-05,0.0,1759220299256001820
4.2638482238714355e-05,0.0,1759220299275951053
-0.0001829184652165908,0.0,1759220299296146266
2.329914146805069e-05,0.0,1759220299315941272
7.261701674111166e-05,0.0,1759220299335921026
-1.6788427274651277e-05,0.0,1759220299355835937
-1.510958454718615e-05,0.0,1759220299375066126
5.611771953819733e-05,0.0,1759220299396072812
9.251561459514972e-06,0.0,1759220299416718671
6.055641970969581e-05,0.0,1759220299436063236
-6.511683534682244e-06,0.0,1759220299455815918
4.446620470348261e-05,0.0,1759220299475813435
4.001958423313435e-05,0.0,1759220299494887517
5.9197531763075755e-06,0.0,1759220299517329099
5.4351288204247545e-05,0.0,1759220299536065986
-2.5243466791325498e-05,0.0,1759220299555857775
-2.2719120112192948e-05,0.0,1759220299574596006
4.077458513636189e-05,0.0,1759220299596327362
7.960684107980087e-05,0.0,1759220299617262240
5.52659135580334e-05,0.0,1759220299636032235
8.05524682188067e-05,0.0,1759220299655826371
4.964500373075941e-05,0.0,1759220299675975932
4.468050335768347e-05,0.0,1759220299695067168
5.6750288807666e-05,0.0,1759220299716829783
2.712583890570287e-05,0.0,1759220299735992685
6.107804189819726e-05,0.0,1759220299756095448
5.4970237708377535e-05,0.0,1759220299774738344
8.572932316065802e-05,0.0,1759220299797153948
1.9251643613730375e-05,0.0,1759220299815766032
-5.484604652577194e-06,0.0,1759220299835776321
2.162228102306364e-05,0.0,1759220299856195528
-3.3266070130087985e-06,0.0,1759220299876318491
8.706247698645763e-05,0.0,1759220299896133000
2.7956517432474947e-06,0.0,1759220299915942639
-1.8061308419533475e-05,0.0,1759220299936063506
1.663850909854665e-05,0.0,1759220299956127956
1.4974658188691986e-05,0.0,1759220299974608576
4.5983484942703185e-05,0.0,1759220299996859280
-1.0337083575872019e-05,0.0,1759220300015663087
-2.9457949761425345e-05,0.0,1759220300035776002
-2.2890743341466173e-06,0.0,1759220300055839159
-2.2429656367469973e-05,0.0,1759220300075785872
-2.0186690730722978e-05,0.0,1759220300095072201
-5.858125439016557e-06,0.0,1759220300117070710
-2.4957230038665144e-05,0.0,1759220300135958380
7.201998087135466e-06,0.0,1759220300155978166
6.48179827842192e-06,0.0,1759220300174730647
3.4643815220619926e-05,0.0,1759220300197309665
-1.431083493198684e-05,0.0,1759220300216170024
-3.132607895707137e-05,0.0,1759220300235965463
-7.217278630041547e-06,0.0,1759220300256642882
-2.5551854274169128e-05,0.0,1759220300275753495
-2.2996668846752215e-05,0.0,1759220300294647520
-9.790116008394795e-06,0.0,1759220300317187213
-2.6137723906296775e-05,0.0,1759220300336303570
2.1093331401371836e-06,0.0,1759220300356863605
1.8983998261234653e-06,0.0,1759220300374958763
2.8109890328299165e-05,0.0,1759220300396802792
-1.535001854070307e-05,0.0,1759220300415875418
-3.0247835120103113e-05,0.0,1759220300435714521
-7.829387592026036e-06,0.0,1759220300455853229
-2.2853257043163416e-05,0.0,1759220300476362026
4.429169007102426e-05,0.0,1759220300496228672
-1.4577655643696892e-05,0.0,1759220300515989278
-2.7875863533701813e-05,0.0,1759220300536147691
-1.1513446063671944e-06,0.0,1759220300555819212
-1.036210145730475e-06,0.0,1759220300574673490
-2.0585821541465242e-05,0.0,1759220300596343385
-6.645315194418246e-06,0.0,1759220300617131959
-2.133732706490943e-05,0.0,1759220300635993453
-2.042735385967319e-06,0.0,1759220300656311810
-1.672887325881655e-05,0.0,1759220300675814037
-1.5055985932934895e-05,0.0,1759220300695043935
-4.870620180073387e-06,0.0,1759220300717633588
-1.880275359927038e-05,0.0,1759220300736110962
4.446595781618506e-06,0.0,1759220300755921755
-1.2354192971215312e-05,0.0,1759220300776052972
-1.111877367409378e-05,0.0,1759220300794755981
-1.9546767555185144e-06,0.0,1759220300817033463
-1.6160716643065574e-05,0.0,1759220300835681029
5.2643887175714e-06,0.0,1759220300856232930
-1.1195403241049903e-05,0.0,1759220300876062727
-1.0075862916944913e-05,0.0,1759220300894942416
-1.607542972010864e-06,0.0,1759220300917393931
-1.5220146011591245e-05,0.0,1759220300935828811
4.976264946904246e-06,0.0,1759220300956211764
4.4786384522138215e-06,0.0,1759220300974853134
2.2239208816687268e-05,0.0,1759220300997078594
-9.643482359135784e-06,0.0,1759220301015960238
-2.0405065593976958e-05,0.0,1759220301035979892
-4.479491270547857e-06,0.0,1759220301056110382
-1.586542864925192e-05,0.0,1759220301075832317
3.101615095700199e-05,0.0,1759220301096400182
-1.1663700346299363e-05,0.0,1759220301115733897
-2.1040333395450273e-05,0.0,1759220301136024380
-1.8454243909501913e-06,0.0,1759220301155770802
-1.6608819518551722e-06,0.0,1759220301174654691
-1.543712646915327e-05,0.0,1759220301196760724
-5.380489192350464e-06,0.0,1759220301217346726
-1.6195487670501627e-05,0.0,1759220301235699580
-2.14051980224621e-06,0.0,1759220301255834961
-1.9264678220215892e-06,0.0,1759220301274617779
-1.3029525550936991e-05,0.0,1759220301295992171
-3.846656636377332e-06,0.0,1759220301317107356
-1.3178380732129336e-05,0.0,1759220301336126034
-2.248766235337762e-08,0.0,1759220301355886586
-2.0238896118039858e-08,0.0,1759220301375168827
-3.336075462162846e-05,0.0,1759220301397134725
-1.5320920123265092e-05,0.0,1759220301416207057
-7.78744180256079e-06,0.0,1759220301435770693
-1.6780616451513064e-05,0.0,1759220301456469819
-6.989633203840375e-06,0.0,1759220301475627738
-3.9130612430535674e-05,0.0,1759220301496246101
-6.6611599253021435e-06,0.0,1759220301515824007
1.7460730059747387e-06,0.0,1759220301535800347
-1.0428113753130404e-05,0.0,1759220301556485632
-9.385302377817364e-06,0.0,1759220301574768284
-2.063223518389056e-05,0.0,1759220301597038407
9.777137947838297e-07,0.0,1759220301615838146
8.581974729613055e-06,0.0,1759220301635696528
-1.2344556510274074e-06,0.0,1759220301656115317
6.643588960204701e-06,0.0,1759220301675923965
-2.392422171199673e-05,0.0,1759220301696192423
4.1633872458462435e-06,0.0,1759220301715856413
1.0729918320687297e-05,0.0,1759220301735985164
-1.322404551373995e-06,0.0,1759220301756216379
-1.1901640962365956e-06,0.0,1759220301774671126
3.9076213218933235e-05,0.0,1759220301797375899
1.3211998785051094e-05,0.0,1759220301815958756
3.4497435982045654e-06,0.0,1759220301836126295
1.6538795697687586e-05,0.0,1759220301855828888
1.4884916127918827e-05,0.0,1759220301874894830
2.1194485760098836e-06,0.0,1759220301896259861
1.051481230964472e-05,0.0,1759220301916985188
-6.543232052855831e-07,0.0,1759220301936147551
1.1824286305903741e-05,0.0,1759220301956078455
2.5376362787642615e-07,0.0,1759220301975590515
4.131483986255694e-05,0.0,1759220301995786053
2.7505187497009226e-06,0.0,1759220302015700073
-7.071382264208361e-06,0.0,1759220302035755599
8.532184894279483e-06,0.0,1759220302056102485
-4.348795229282579e-06,0.0,1759220302075759385
-3.9139157063543214e-06,0.0,1759220302095033332
2.294546603934161e-06,0.0,1759220302117082626
-8.262461355021196e-06,0.0,1759220302135753399
6.838324879737911e-06,0.0,1759220302156450073
6.15449239176412e-06,0.0,1759220302174972033
1.9435999888720567e-05,0.0,1759220302197346240
-4.731936784746494e-06,0.0,1759220302216503618
-1.3398088323786476e-05,0.0,1759220302236016200
-1.4489275796626737e-06,0.0,1759220302256080855
-1.0233724129249986e-05,0.0,1759220302275847013
2.569803741758994e-05,0.0,1759220302296071754
-6.374839747716486e-06,0.0,1759220302315976898
-1.3858926302146552e-05,0.0,1759220302336002247
6.399395590132006e-08,0.0,1759220302356403930
5.759456031118806e-08,0.0,1759220302375110087
-3.900498844676089e-05,0.0,1759220302397074544
-1.642136422516789e-05,0.0,1759220302416106638
-7.291687265292542e-06,0.0,1759220302436009991
-1.863391570007567e-05,0.0,1759220302455833025
-1.6770524130068103e-05,0.0,1759220302474663968
-5.209300991898989e-06,0.0,1759220302496555887
-1.2674426707823048e-05,0.0,1759220302516787200
-2.3514607438304174e-06,0.0,1759220302536131700
-7.71655929969395e-05,0.0,1759220302556079661
-2.064847001242412e-05,0.0,1759220302576540322
-5.04461969114047e-05,0.0,1759220302596123383
-1.4443211822422894e-06,0.0,1759220302616017511
1.0864204078269852e-05,0.0,1759220302636020264
-1.6623051740342215e-06,0.0,1759220302655974245
-1.4960746566307993e-06,0.0,1759220302674699845
9.532303565376268e-06,0.0,1759220302696261085
3.1543557370535974e-06,0.0,1759220302717133896
1.0487643228151941e-05,0.0,1759220302736120836
9.692648459376888e-07,0.0,1759220302756100745
8.7233836134392e-07,0.0,1759220302775009103
8.450209275747499e-06,0.0,1759220302796102214
2.263592525655804e-06,0.0,1759220302817264095
8.731753948204509e-06,0.0,1759220302836018302
-5.552691759635255e-08,0.0,1759220302856062660
6.5724139933709735e-06,0.0,1759220302875781967
-2.033770088424454e-05,0.0,1759220302896057038
3.7666679343745146e-06,0.0,1759220302916105360
9.637942297366467e-06,0.0,1759220302935814633
-8.413353915269028e-07,0.0,1759220302956170622
-7.572018523742126e-07,0.0,1759220302974590277
7.494766604300125e-06,0.0,1759220302996044067
-5.8717151121324636e-05,0.0,1759220303016659087
-6.966024825813227e-07,0.0,1759220303036283019
-7.225288215729188e-05,0.0,1759220303055987522
-8.538482037621724e-06,0.0,1759220303076169914
-7.684633833859552e-06,0.0,1759220303094744343
-4.3121335896227603e-05,0.0,1759220303117179385
1.8235913487447852e-05,0.0,1759220303135794251
-6.64136317407788e-05,0.0,1759220303156270267
-5.9772268566700925e-05,0.0,1759220303174978871
1.921063703604507e-05,0.0,1759220303196178629
3.413192657260806e-05,0.0,1759220303217110145
3.850469531656998e-05,0.0,1759220303236016828
3.47480582074606e-05,0.0,1759220303255890766
3.127325238671454e-05,0.0,1759220303274745515
2.9960772287352722e-05,0.0,1759220303296368906
2.7501860497712578e-05,0.0,1759220303316639064
2.488883998303899e-05,0.0,1759220303335920874
2.248842130323337e-05,0.0,1759220303355786093
2.0239579172910034e-05,0.0,1759220303374661616
1.8190049279678964e-05,0.0,1759220303396313184
3.5194304733712584e-05,0.0,1759220303417744237
1.560550971874765e-05,0.0,1759220303435982789
3.5240716767710365e-05,0.0,1759220303456014986
3.171664509093933e-05,0.0,1759220303474739875
5.7440450867856774e-05,0.0,1759220303497160568
1.1548975225153194e-05,0.0,1759220303515949791
-4.989474737649761e-06,0.0,1759220303536579971
1.594360374027216e-05,0.0,1759220303556188017
1.4349243366244946e-05,0.0,1759220303574691941
-5.090222920052308e-06,0.0,1759220303595945208
-6.706601574842372e-05,0.0,1759220303616708876
-1.5861484338873766e-05,0.0,1759220303635842790
-7.771718497398761e-05,0.0,1759220303656052362
-6.994546647658885e-05,0.0,1759220303674665470
-7.340953499474751e-06,0.0,1759220303695875352
-4.8118274256774825e-05,0.0,1759220303717180791
7.391221530306595e-06,0.0,1759220303735879764
-5.387955205961257e-05,0.0,1759220303755984388
-4.8491596853651314e-05,0.0,1759220303774724556
1.1262667416000655e-05,0.0,1759220303795832154
-2.9318908128252874e-05,0.0,1759220303816642130
2.0788765207947592e-05,0.0,1759220303835834553
-3.8465666186828336e-05,0.0,1759220303856018889
1.2961002233379477e-05,0.0,1759220303875863389
1.166490201004153e-05,0.0,1759220303894842222
-1.9283842541713282e-05,0.0,1759220303917229279
-1.7355458287541955e-05,0.0,1759220303934823994
-3.9237851001149e-05,0.0,1759220303956889855
-3.53140659010341e-05,0.0,1759220303974634601
2.6994825283230202e-05,0.0,1759220303996234714
4.8560053270956944e-05,0.0,1759220304017218215
4.213967996120955e-05,0.0,1759220304036090911
4.871030614302934e-05,0.0,1759220304055926665
4.383927552872641e-05,0.0,1759220304074852403
5.549536888393761e-05,0.0,1759220304097202321
3.033001693017162e-05,0.0,1759220304115712947
1.970083124249109e-05,0.0,1759220304136027534
-3.519673319712994e-05,0.0,1759220304156274285
-3.167705987741695e-05,0.0,1759220304174644574
3.020570646293805e-05,0.0,1759220304197208552
1.696226175677371e-05,0.0,1759220304216033717
1.1204302980923431e-05,0.0,1759220304236010071
2.1027759189333832e-05,0.0,1759220304256348660
1.08075841207458e-05,0.0,1759220304275996680
9.72682570867122e-06,0.0,1759220304295135737
1.5057585328928252e-05,0.0,1759220304317028800
4.628158407599113e-06,0.0,1759220304336070951
1.7695674774869304e-05,0.0,1759220304356139585
1.5926107297382374e-05,0.0,1759220304375017698
2.672430252981806e-06,0.0,1759220304395748400
-4.889048457282993e-05,0.0,1759220304417452609
-4.78654596453172e-06,0.0,1759220304436017037
-5.722455220914248e-05,0.0,1759220304456049905
-5.1502096988228235e-05,0.0,1759220304474615644
-0.00011734671143190663,0.0,1759220304496950491
-8.077144874659318e-06,0.0,1759220304516015149
3.1405258785709484e-05,0.0,1759220304536041190
-2.1457630809092808e-05,0.0,1759220304555965147
-1.931186772818353e-05,0.0,1759220304575277599
-8.655603103542494e-05,0.0,1759220304596828196
1.4082020595319292e-05,0.0,1759220304615980242
4.925185151840992e-05,0.0,1759220304636093623
-2.5523855887546226e-06,0.0,1759220304655990842
-2.2971470298791603e-06,0.0,1759220304675100894
-6.547164778706212e-05,0.0,1759220304697086726
2.976336016276343e-05,0.0,1759220304715833021
6.19115288919636e-05,0.0,1759220304735671060
1.2508654802317243e-05,0.0,1759220304756222363
4.817448782213689e-05,0.0,1759220304775844840
4.33570390399232e-05,0.0,1759220304794695958
1.598087532427035e-05,0.0,1759220304816916313
5.008875290241706e-05,0.0,1759220304836049927
-9.04068419655127e-06,0.0,1759220304856142649
3.254753541347872e-05,0.0,1759220304876926410
2.9292781872130852e-05,0.0,1759220304895008934
5.541232214212374e-06,0.0,1759220304917067033
4.154869864503448e-05,0.0,1759220304936133737
-1.4278728629962343e-05,0.0,1759220304956218321
2.937069586623107e-05,0.0,1759220304975612103
2.6433626279607963e-05,0.0,1759220304994981654
4.710183233686708e-06,0.0,1759220305017319346
3.988060474431819e-05,0.0,1759220305035976717
-1.2454436762216637e-05,0.0,1759220305056288162
-1.1208993085994974e-05,0.0,1759220305074743210
3.148529015264984e-05,0.0,1759220305096200058
4.022229159789462e-06,0.0,1759220305117229960
3.588700273471412e-05,0.0,1759220305135714672
-3.0166877928313485e-06,0.0,1759220305156179775
-2.715019013548214e-06,0.0,1759220305174664313
-4.914708260216927e-05,0.0,1759220305197349644
2.487336242749629e-05,0.0,1759220305215633701
4.864179880995739e-05,0.0,1759220305236134964
1.0566847273763228e-05,0.0,1759220305256127500
3.7478339091596696e-05,0.0,1759220305275963713
-7.800814750796608e-05,0.0,1759220305296145550
2.456769824882418e-05,0.0,1759220305315956686
4.826584173533847e-05,0.0,1759220305335814339
4.09504929618578e-06,0.0,1759220305356795577
3.7726390159331164e-05,0.0,1759220305375858610
3.395375114339805e-05,0.0,1759220305394742498
1.46424061157376e-05,0.0,1759220305416797598
4.069256419913553e-05,0.0,1759220305435999869
-3.293491421365376e-06,0.0,1759220305455940779
-2.9641422792288385e-06,0.0,1759220305474751052
2.948881049054039e-05,0.0,1759220305497094287
5.946313071309603e-06,0.0,1759220305516995456
3.071401042330693e-05,0.0,1759220305535926501
-7.89481906011961e-07,0.0,1759220305556414586
-7.10533715410765e-07,0.0,1759220305574603762
2.532888033019209e-05,0.0,1759220305596397820
6.120219060328457e-05,0.0,1759220305617001197
3.221190347067569e-05,0.0,1759220305635705656
6.332319977701923e-05,0.0,1759220305656333572
2.9131954811084682e-05,0.0,1759220305675859337
2.6218759329976215e-05,0.0,1759220305694921378
4.2710668994252644e-05,0.0,1759220305717059027
9.803903434495028e-06,0.0,1759220305735651114
5.1263583044613525e-05,0.0,1759220305755978713
4.613722474015218e-05,0.0,1759220305774989122
8.425446463779812e-05,0.0,1759220305797290766
7.869406057783198e-06,0.0,1759220305815845798
-1.971468538672073e-05,0.0,1759220305835711779
1.3337180895416391e-05,0.0,1759220305856234635
-1.54816276654651e-05,0.0,1759220305875663400
8.946874953852373e-05,0.0,1759220305896091747
-7.75675931281805e-06,0.0,1759220305916043736
-3.1348939246875526e-05,0.0,1759220305936034462
-7.166961654140659e-05,0.0,1759220305956374226
-6.450265488726593e-05,0.0,1759220305974990995
-3.3322580979132415e-05,0.0,1759220305995826776
-5.5168273714561315e-05,0.0,1759220306016731046
-2.2510298800547276e-05,0.0,1759220306035874325
-5.288888117850283e-05,0.0,1759220306055843064
-4.759999306065255e-05,0.0,1759220306074761333
-1.4652841708705804e-05,0.0,1759220306096886457
-3.47828076167139e-05,0.0,1759220306116972914
-6.003348445287662e-06,0.0,1759220306136168450
-3.544121899700683e-05,0.0,1759220306156360761
-3.189709709730615e-05,0.0,1759220306174637824
7.40516771005931e-05,0.0,1759220306197107060
1.58010390625915e-05,0.0,1759220306215958282
-5.817671545825991e-06,0.0,1759220306236075057
2.7715894518324906e-05,0.0,1759220306256234164
-7.95732924834581e-07,0.0,1759220306276445139
-7.161596323511229e-07,0.0,1759220306295027853
1.7381833869020646e-05,0.0,1759220306317148555
-1.1360192222372019e-05,0.0,1759220306336021410
3.0200432500912697e-05,0.0,1759220306356145036
2.718038925082143e-05,0.0,1759220306374673854
-8.750634893137587e-05,0.0,1759220306397112922
-2.8270845745622616e-05,0.0,1759220306415895866
-5.6163518694970626e-06,0.0,1759220306436006899
-3.7241143226034824e-05,0.0,1759220306456420271
-7.336764364700527e-06,0.0,1759220306475955479
-0.00011435957914106641,0.0,1759220306496145023
-1.2308946588916942e-05,0.0,1759220306515966819
1.3655173390649443e-05,0.0,1759220306536088011
-2.7095695493710983e-05,0.0,1759220306556168494
-2.4386125944339884e-05,0.0,1759220306574897009
-6.119224444588471e-05,0.0,1759220306597082920
6.2417480516116855e-06,0.0,1759220306616189857
3.093803696965507e-05,0.0,1759220306635610068
-8.429032745680201e-07,0.0,1759220306656140570
2.4311278070624843e-05,0.0,1759220306675641281
2.188015026356236e-05,0.0,1759220306694923686
5.01694821219771e-06,0.0,1759220306717430185
2.856460513380157e-05,0.0,1759220306736026079
-1.018128905342574e-05,0.0,1759220306755936317
-9.163160148083166e-06,0.0,1759220306774645991
-4.317703356799218e-05,0.0,1759220306796946705
1.5741369738775496e-05,0.0,1759220306816262156
3.6599526559318026e-05,0.0,1759220306835838118
6.974383684394245e-06,0.0,1759220306856154939
2.864002129148082e-05,0.0,1759220306875748539
2.5776019162332737e-05,0.0,1759220306895032069
9.695157165299654e-06,0.0,1759220306917087002
3.0181190921625116e-05,0.0,1759220306935853366
-4.0184670820972e-06,0.0,1759220306956394085
-3.61662037388748e-06,0.0,1759220306974693716
0.00011747863636438376,0.0,1759220306997059541
4.086701407589159e-05,0.0,1759220307015739798
1.117341600999669e-05,0.0,1759220307035662927
4.854020473760759e-05,0.0,1759220307056515767
4.368618426384683e-05,0.0,1759220307075093708
9.312673851337406e-05,0.0,1759220307097227294
1.0860605893844754e-05,0.0,1759220307116098118
-1.9223576155981793e-05,0.0,1759220307135929207
-4.459813929024183e-05,0.0,1759220307156180577
-4.013832536121765e-05,0.0,1759220307175085583
6.08164680938017e-05,0.0,1759220307196949767
-6.358246384523944e-06,0.0,1759220307215686250
-2.9297728130034627e-05,0.0,1759220307235942568
1.0414889351720095e-05,0.0,1759220307255917448
-1.9241803190989427e-05,0.0,1759220307276071286
-1.7317622871890486e-05,0.0,1759220307294678063
3.6998892451235065e-06,0.0,1759220307317351233
-2.5898880970953785e-05,0.0,1759220307336218158
2.1331104903302112e-05,0.0,1759220307356344208
1.91979944129719e-05,0.0,1759220307374596486
-1.8821518964799016e-05,0.0,1759220307396984987
-5.5872123650619843e-05,0.0,1759220307416934426
-3.184386439213984e-05,0.0,1759220307435964536
-5.8504498467553374e-05,0.0,1759220307455862437
-2.962562752198832e-05,0.0,1759220307475852081
-2.666306476978949e-05,0.0,1759220307494765324
-3.9972158295266966e-05,0.0,1759220307516934808
-1.2323067236275599e-05,0.0,1759220307536010970
-4.648104228668156e-05,0.0,1759220307556478403
-4.18329380580134e-05,0.0,1759220307574576836
-7.182799744826644e-06,0.0,1759220307596002113
-2.4677023132062087e-05,0.0,1759220307616747255
9.929482548125623e-07,0.0,1759220307635992284
-2.587671383152319e-05,0.0,1759220307656185744
-8.375076336943867e-07,0.0,1759220307675993560
-8.93261008701669e-05,0.0,1759220307695909400
-5.697333966600939e-06,0.0,1759220307715656892
1.5027516861036911e-05,0.0,1759220307735889941
-1.830925029770753e-05,0.0,1759220307756312000
-1.647832526793678e-05,0.0,1759220307774806534
1.2442546016282795e-05,0.0,1759220307796247553
5.4084279082279726e-05,0.0,1759220307817374462
2.213116220941427e-05,0.0,1759220307836230549
5.9649119033379485e-05,0.0,1759220307855975004
5.3684207130041535e-05,0.0,1759220307874573697
1.5064390630654536e-05,0.0,1759220307895913138
3.8335668194820246e-05,0.0,1759220307917528557
3.902522736358835e-06,0.0,1759220307936157728
4.0148231582735934e-05,0.0,1759220307955959177
3.613340842446234e-05,0.0,1759220307974665408
4.4133242810563667e-07,0.0,1759220307996152385
2.4467503741719614e-05,0.0,1759220308016697420
-6.294767941233405e-06,0.0,1759220308036064833
2.8903664059490967e-05,0.0,1759220308055923903
-2.2668171786404377e-06,0.0,1759220308075904455
-2.040135460776394e-06,0.0,1759220308094691602
1.613875160981696e-05,0.0,1759220308116869549
-1.3539328141268158e-05,0.0,1759220308136077098
2.9445503042636274e-05,0.0,1759220308156248566
2.6500952738372648e-05,0.0,1759220308174664253
-8.777240161322041e-05,0.0,1759220308196766249
-3.0942355252922046e-05,0.0,1759220308215654244
-8.818294226949502e-06,0.0,1759220308235589368
-3.796584300362319e-05,0.0,1759220308256629213
-8.21033007480494e-06,0.0,1759220308275724279
-0.00011073347705043659,0.0,1759220308296054439
-1.3787392547479516e-05,0.0,1759220308316145480
1.2049794581218285e-05,0.0,1759220308335788057
-2.6277167216882396e-05,0.0,1759220308356405125
-2.3649450495194158e-05,0.0,1759220308374552383
1.0340367288791279e-05,0.0,1759220308396365306
-9.954481661635706e-06,0.0,1759220308417416360
1.667445928696719e-05,0.0,1759220308435777054
-1.3235559760195916e-05,0.0,1759220308455791236
1.1818162989634573e-05,0.0,1759220308475861432
1.0636346690671117e-05,0.0,1759220308494730138
-4.2167663860767215e-06,0.0,1759220308517732023
2.011672631770254e-05,0.0,1759220308535912330
-1.5805342978041413e-05,0.0,1759220308556205173
-1.4224808680237272e-05,0.0,1759220308574664687
1.65147387368695e-05,0.0,1759220308595917241
-2.0780137847129386e-06,0.0,1759220308617010589
2.085486080434393e-05,0.0,1759220308635691707
-6.323584646283257e-06,0.0,1759220308656004918
-5.691226181654931e-06,0.0,1759220308674777458
1.772252581358191e-05,0.0,1759220308696206846
-1.9200706222286074e-07,0.0,1759220308717012225
1.981678739160821e-05,0.0,1759220308735716648
-5.801343325190662e-06,0.0,1759220308755912433
-5.221208992671596e-06,0.0,1759220308774813459
1.633970360785806e-05,0.0,1759220308796176243
-8.250404873796907e-07,0.0,1759220308816850691
1.7981647553425313e-05,0.0,1759220308835765967
-6.155615965979572e-06,0.0,1759220308855935697
1.280339664319877e-05,0.0,1759220308875983366
-6.322482839554356e-05,0.0,1759220308896318739
5.941835227782915e-06,0.0,1759220308916031908
2.2937132876940866e-05,0.0,1759220308935678183
-6.619179143185209e-06,0.0,1759220308955888515
1.545313063153635e-05,0.0,1759220308975972313
1.3907817568382715e-05,0.0,1759220308994857818
1.9443093574321004e-06,0.0,1759220309017016961
2.060307197785446e-05,0.0,1759220309035753977
-6.983103713557264e-06,0.0,1759220309056336679
1.526240038594596e-05,0.0,1759220309075681030
1.3736160347351364e-05,0.0,1759220309094613881
2.534421412373528e-06,0.0,1759220309116991974
1.9788743187214824e-05,0.0,1759220309136065249
-7.125846285500083e-06,0.0,1759220309156150123
-6.413261656950074e-06,0.0,1759220309174595979
1.581633422147665e-05,0.0,1759220309195717100
2.172968713355895e-06,0.0,1759220309216936306
1.8109565301178385e-05,0.0,1759220309235942109
-1.9257066744444114e-06,0.0,1759220309256039643
1.3821143582580352e-05,0.0,1759220309275670732
-4.7096918607810266e-05,0.0,1759220309296039284
8.830373772942923e-06,0.0,1759220309315742422
2.189025901804212e-05,0.0,1759220309335798849
-2.9664985296945967e-05,0.0,1759220309356024531
8.90838949103034e-06,0.0,1759220309375682827
8.017550541927306e-06,0.0,1759220309395001865
5.915844063393253e-06,0.0,1759220309417039018
2.2300736958411186e-05,0.0,1759220309435697231
7.119164714091593e-08,0.0,1759220309456117089
1.684497792124728e-05,0.0,1759220309475953933
-3.931330823885201e-05,0.0,1759220309496188676
1.2327026288341769e-05,0.0,1759220309516022883
2.4230412038497434e-05,0.0,1759220309535947388
2.4903508111543517e-06,0.0,1759220309555925986
2.2413157300389166e-06,0.0,1759220309574974182
1.877064194954984e-05,0.0,1759220309596046035
7.726876006141612e-06,0.0,1759220309617797321
1.9992386070673763e-05,0.0,1759220309636330069
3.976316528789521e-06,0.0,1759220309656312370
1.579960471134079e-05,0.0,1759220309675637851
1.4219644240206713e-05,0.0,1759220309694612615
5.757562498104109e-06,0.0,1759220309717234607
1.6766784143068073e-05,0.0,1759220309736011285
-2.1344090344526373e-06,0.0,1759220309755865564
-1.9209681310073734e-06,0.0,1759220309774732554
0.0001854102400388239,0.0,1759220309797062240
3.97975632295411e-05,0.0,1759220309815857824
-1.1725315723286552e-05,0.0,1759220309836918277
6.436098083786077e-05,0.0,1759220309856115924
2.10538401000425e-07,0.0,1759220309875959291
1.894845609003825e-07,0.0,1759220309894634640
3.711033287496948e-05,0.0,1759220309917064523
-2.343270534387653e-05,0.0,1759220309936217493
6.630509546598363e-05,0.0,1759220309956136670
5.967458591938527e-05,0.0,1759220309974619685
8.678124574623474e-05,0.0,1759220309997371887
-1.9609772240912216e-05,0.0,1759220310016135999
-5.700005017566175e-05,0.0,1759220310035684600
-9.490793946874999e-06,0.0,1759220310056145891
-4.4865262503007224e-05,0.0,1759220310076160835
0.00010448716373863172,0.0,1759220310095828137
-2.2194556959163547e-05,0.0,1759220310116134619
-5.357355022223973e-05,0.0,1759220310135779450
2.9936489363086775e-06,0.0,1759220310155909282
2.69428404267781e-06,0.0,1759220310174785946
-4.117109004152556e-05,0.0,1759220310196203669
-1.0741185217050926e-05,0.0,1759220310216733307
-4.2850353560766166e-05,0.0,1759220310236403417
-2.425571290675863e-07,0.0,1759220310256182458
-2.1830141616082765e-07,0.0,1759220310274658097
4.861530903754536e-05,0.0,1759220310297521877
-3.0756854034537875e-05,0.0,1759220310315662014
-5.584741360771021e-05,0.0,1759220310335836142
-1.4695334579198264e-05,0.0,1759220310355983543
-4.159841271076506e-05,0.0,1759220310376783134
8.813191121264497e-05,0.0,1759220310395912641
-2.1111670635221626e-05,0.0,1759220310415761075
-4.634747239479633e-05,0.0,1759220310435970192
2.6850798172604252e-06,0.0,1759220310455912583
2.416571835534383e-06,0.0,1759220310474961678
4.550158909062121e-05,0.0,1759220310496961558
-2.7865006320758084e-05,0.0,1759220310515798953
-5.140596130212942e-05,0.0,1759220310536534152
9.525836960982814e-06,0.0,1759220310555980238
8.573253264884532e-06,0.0,1759220310574815315
3.333526553664465e-05,0.0,1759220310598078104
-3.772250846580429e-05,0.0,1759220310615923506
-5.933219180650155e-05,0.0,1759220310635694205
-2.3876462635725373e-05,0.0,1759220310655888421
-4.6679532305251e-05,0.0,1759220310675680918
5.6295436408991954e-05,0.0,1759220310696006435
-3.174577981664628e-05,0.0,1759220310716195647
-5.2166228383614193e-05,0.0,1759220310735734702
-1.1136132446019392e-05,0.0,1759220310756258059
-3.895804862059578e-05,0.0,1759220310775909861
6.298438739652231e-05,0.0,1759220310796340254
-2.8468182123704375e-05,0.0,1759220310816088653
-4.914448635161748e-05,0.0,1759220310836072505
-8.861439186874384e-06,0.0,1759220310855909731
-3.5533392843163165e-05,0.0,1759220310875940264
-3.198005355884685e-05,0.0,1759220310894866315
-1.5658817942506154e-05,0.0,1759220310916745684
-3.712962049941078e-05,0.0,1759220310936149219
-4.3282882231220624e-07,0.0,1759220310956255763
-3.8954594008098565e-07,0.0,1759220310974636192
8.281740460459449e-05,0.0,1759220310997095480
-1.7587111621307418e-05,0.0,1759220311015620304
-5.1093265513454397e-05,0.0,1759220311035878384
-1.325585456828916e-06,0.0,1759220311056456460
-3.997508310239222e-05,0.0,1759220311075793036
-3.5977574792153e-05,0.0,1759220311095220103
-8.448019401573248e-06,0.0,1759220311116943762
-4.382539458976429e-05,0.0,1759220311136053939
1.5926527902201624e-05,0.0,1759220311156037448
1.4333875111981462e-05,0.0,1759220311174611071
-3.3159501888838336e-05,0.0,1759220311196283532
-8.195284134140677e-05,0.0,1759220311217456271
-4.5446906097722825e-05,0.0,1759220311235770922
-8.333720473600107e-05,0.0,1759220311256288799
-7.500348426240096e-05,0.0,1759220311274656279
-3.098424031490619e-05,0.0,1759220311296099103
-5.602258896970515e-05,0.0,1759220311317146508
-1.7130995849134086e-05,0.0,1759220311336436019
-5.60927078759521e-05,0.0,1759220311356403453
-5.048343708835689e-05,0.0,1759220311375023817
4.36465002700716e-05,0.0,1759220311397403908
6.503751139471479e-06,0.0,1759220311415835823
-6.847827409954883e-06,0.0,1759220311435697687
1.6776593462126247e-05,0.0,1759220311456329036
-3.318079121550775e-06,0.0,1759220311476019933
-2.9862712093956975e-06,0.0,1759220311494657464
1.0272312396727386e-05,0.0,1759220311516985700
-9.817806835571467e-06,0.0,1759220311535799394
2.026357876802439e-05,0.0,1759220311555793223
-4.350584572979704e-06,0.0,1759220311575836854
7.52458606354086e-05,0.0,1759220311596011020
1.4896427775133974e-06,0.0,1759220311616275591
-1.770168816042007e-05,0.0,1759220311635918272
1.1528334268173727e-05,0.0,1759220311656090097
1.0375500841356355e-05,0.0,1759220311674627581
-1.4059883877810683e-05,0.0,1759220311696311679
1.3103641983398255e-06,0.0,1759220311717131147
-1.6994545335572852e-05,0.0,1759220311735727029
4.595578604872821e-06,0.0,1759220311756197923
4.1360207443855395e-06,0.0,1759220311774879456
-1.490253767060001e-05,0.0,1759220311795999724
1.8642626290778338e-05,0.0,1759220311817057301
-1.3891836461017156e-05,0.0,1759220311836378341
2.694788516365989e-05,0.0,1759220311856741401
-9.707669962656221e-06,0.0,1759220311875923356
0.00012462725841537903,0.0,1759220311896262107
-2.1324932878824104e-06,0.0,1759220311915624127
-3.275832840676048e-05,0.0,1759220311935675664
1.7839503151777244e-05,0.0,1759220311956855998
1.6055552836599522e-05,0.0,1759220311975044450
-2.5474192126213404e-05,0.0,1759220311996869577
-1.8330881254673004e-05,0.0,1759220312016849512
-3.230636790731025e-05,0.0,1759220312035908699
-1.396345716198457e-05,0.0,1759220312056102694
-2.5351700225360796e-05,0.0,1759220312076504763
-2.281653020282472e-05,0.0,1759220312094587923
-1.3161869438447739e-05,0.0,1759220312116882527
-2.4187271279191e-05,0.0,1759220312135719547
-3.6546998889582098e-06,0.0,1759220312156039164
-3.289229900062389e-06,0.0,1759220312174876098
1.5285751919112457e-05,0.0,1759220312197041807
-1.4821744022999861e-05,0.0,1759220312215761938
-2.46553365858888e-05,0.0,1759220312235719596
-8.918596676918078e-06,0.0,1759220312256058255
-1.9514258819056353e-05,0.0,1759220312275681216
-1.756283293715072e-05,0.0,1759220312294664838
-9.06664610045301e-06,0.0,1759220312317377672
-1.9105032925984514e-05,0.0,1759220312336070959
-7.336179122075271e-07,0.0,1759220312356014802
-6.602561209867744e-07,0.0,1759220312375099383
1.5314804108732744e-05,0.0,1759220312397185682
-1.13216921768636e-05,0.0,1759220312416515484
-2.069418553992735e-05,0.0,1759220312435788969
-6.682110944069274e-06,0.0,1759220312456047351
-1.615685140653661e-05,0.0,1759220312475856545
9.944954449139128e-05,0.0,1759220312496119787
-2.5934340897458183e-07,0.0,1759220312515640195
-2.4308542135153435e-05,0.0,1759220312536084594
1.996660104121037e-05,0.0,1759220312556120977
-1.4385461831381926e-05,0.0,1759220312575973089
-1.2946915648243734e-05,0.0,1759220312595065541
4.3385660546960275e-06,0.0,1759220312617379232
-2.4803773594612827e-05,0.0,1759220312636034074
1.760764629676204e-05,0.0,1759220312656175812
1.584688166708584e-05,0.0,1759220312674813526
-1.9271420766982982e-05,0.0,1759220312696649974
2.842790949697449e-06,0.0,1759220312717387925
-2.3442026973817667e-05,0.0,1759220312736306191
8.408809077864674e-06,0.0,1759220312756070180
7.567928170078207e-06,0.0,1759220312775110478
-2.004625345637448e-05,0.0,1759220312796065848
6.409834093152612e-07,0.0,1759220312817079009
-2.2317069844160234e-05,0.0,1759220312836235402
7.761753518981873e-06,0.0,1759220312855862471
6.985578167083686e-06,0.0,1759220312874572164
-1.757159812186629e-05,0.0,1759220312896547574
2.2673252928051575e-06,0.0,1759220312917190348
-1.9834663814086293e-05,0.0,1759220312936005203
7.806499747322937e-06,0.0,1759220312956182626
7.025849772590643e-06,0.0,1759220312974592029
-7.5678246866372675e-06,0.0,1759220312997128260
-1.9150612282423284e-05,0.0,1759220313015745970
-2.1978627208333114e-05,0.0,1759220313036269244
-1.6263967468230803e-05,0.0,1759220313056415911
-1.8078139572358955e-05,0.0,1759220313075684358
-4.598493399801937e-06,0.0,1759220313096097905
-1.3971162006801358e-05,0.0,1759220313116291344
-1.5354222658591626e-05,0.0,1759220313136116523
-9.51208843524352e-06,0.0,1759220313156099818
-8.560879591719169e-06,0.0,1759220313174966053
-3.4473527713014862e-06,0.0,1759220313197273746
-9.911307448232994e-06,0.0,1759220313215844326
-1.1541192582145735e-05,0.0,1759220313236097074
-7.140522160385356e-06,0.0,1759220313255770083
-9.04843183295743e-06,0.0,1759220313276359730
-8.143588649661687e-06,0.0,1759220313294819478
-5.705075193655933e-06,0.0,1759220313316819017
-7.66900343960981e-06,0.0,1759220313336075099
-3.0409693158524437e-06,0.0,1759220313356045568
-2.7368723842671993e-06,0.0,1759220313374588980
-5.726766854904983e-06,0.0,1759220313395990328
-3.243175203939264e-06,0.0,1759220313417121003
-5.47805893420264e-06,0.0,1759220313435663670
-2.125346459224869e-06,0.0,1759220313456106983
-1.912811813302382e-06,0.0,1759220313474620073
-4.286843158682235e-06,0.0,1759220313496155023
-2.082656313424162e-06,0.0,1759220313517424380
-4.149470847970295e-06,0.0,1759220313535955280
-1.0885900459513288e-06,0.0,1759220313556087249
-9.79731041356196e-07,0.0,1759220313574767812
2.692633014024651e-06,0.0,1759220313597219295
-2.569521553880619e-06,0.0,1759220313616295739
-4.322184756312257e-06,0.0,1759220313635892919
-1.3896675895123542e-06,0.0,1759220313656125496
-3.3665461151064885e-06,0.0,1759220313675648571
5.217500943538957e-06,0.0,1759220313696194084
-2.377766977392236e-06,0.0,1759220313716031125
-4.126488582448695e-06,0.0,1759220313735619279
-0.00011029863281414697,0.0,1759220313755838306
-3.19568396433465e-05,0.0,1759220313775869836
-2.876115567901185e-05,0.0,1759220313794685888
3.465628400495222e-06,0.0,1759220313817119772
7.941001991722282e-06,0.0,1759220313835662173
1.2991743208544049e-05,0.0,1759220313855805024
8.972143350168644e-06,0.0,1759220313875691582
8.07492901515178e-06,0.0,1759220313894748149
1.0183127788236441e-05,0.0,1759220313917016958
5.46800365054344e-06,0.0,1759220313936064998
1.0578095462004024e-05,0.0,1759220313955809127
9.520285915803622e-06,0.0,1759220313975191568
3.7609175162554375e-06,0.0,1759220313995972610
6.129920924652936e-06,0.0,1759220314017049995
1.995655138253365e-06,0.0,1759220314036462700
5.799859953771599e-06,0.0,1759220314056927435
1.8190671933494853e-06,0.0,1759220314077065422
