loc_acc_x,loc_acc_y,stamp
5.588448581807594e-06,0.0,1759202857674095057
5.90520667604936e-06,0.0,1759202857674179557
5.5033087950608595e-06,0.0,1759202857675307587
3.1580355463367922e-06,0.0,1759202857697583719
4.420719009508794e-06,0.0,1759202857714678545
3.4968670832915687e-06,0.0,1759202857736671807
4.320690345688103e-06,0.0,1759202857755670781
4.14639172599585e-06,0.0,1759202857774961005
-1.865696197658636e-05,0.0,1759202857796024400
4.208793605212319e-06,0.0,1759202857815341051
-1.6401542302067945e-05,0.0,1759202857836620071
8.136475495541971e-06,0.0,1759202857855236308
8.964560816379024e-06,0.0,1759202857874347001
-1.2230037071560455e-06,0.0,1759202857896494343
4.331283928633452e-06,0.0,1759202857914453328
-1.1552846742860403e-06,0.0,1759202857936379664
4.388468134015081e-06,0.0,1759202857955201311
1.0944549453738627e-05,0.0,1759202857975279234
9.505629579503471e-06,0.0,1759202857995990858
1.004800023274113e-05,0.0,1759202858015293391
8.328812913789013e-06,0.0,1759202858035984715
8.385251195719626e-06,0.0,1759202858055280952
7.611663813736675e-06,0.0,1759202858074699805
6.521941107088362e-06,0.0,1759202858096727876
6.0698135154953846e-06,0.0,1759202858114285501
5.286572318843167e-06,0.0,1759202858136181456
4.954022356734434e-06,0.0,1759202858154777198
4.692734597932617e-06,0.0,1759202858176114416
3.489744623640248e-06,0.0,1759202858196053215
3.8031795461738306e-06,0.0,1759202858215722012
2.7328508633645747e-06,0.0,1759202858235373553
3.1111739286473697e-06,0.0,1759202858256104577
2.8886515322396925e-06,0.0,1759202858274459689
2.300993874064245e-06,0.0,1759202858297063958
2.346686770684723e-06,0.0,1759202858314294186
1.9478469928433077e-06,0.0,1759202858336337050
1.969564404548493e-06,0.0,1759202858355103127
1.821944027175856e-06,0.0,1759202858374894736
-1.582373971218953e-05,0.0,1759202858396816266
2.2372657134328145e-06,0.0,1759202858416343342
-8.110325858254712e-06,0.0,1759202858435578231
2.2410239924923506e-06,0.0,1759202858455626677
4.171776519391409e-06,0.0,1759202858474671538
-1.591906512435412e-05,0.0,1759202858495872292
4.9107219450121496e-06,0.0,1759202858515096722
-1.386755340684709e-05,0.0,1759202858535766351
6.469389808617053e-06,0.0,1759202858555673963
7.298648087952577e-06,0.0,1759202858574607536
1.911005107121846e-05,0.0,1759202858596618324
1.2296295000308209e-05,0.0,1759202858614622348
1.639439559539511e-05,0.0,1759202858636136630
9.497586879326326e-06,0.0,1759202858654871357
2.083071670641412e-06,0.0,1759202858675626038
2.231969032922195e-05,0.0,1759202858695625847
1.3521627856651897e-06,0.0,1759202858715093607
2.0158751441618293e-05,0.0,1759202858735343760
-5.617698228070228e-07,0.0,1759202858755801643
-2.0222532721152994e-06,0.0,1759202858774419736
-3.8358073512964665e-06,0.0,1759202858796649627
-3.4813253448841517e-06,0.0,1759202858814712907
-3.436066533088154e-06,0.0,1759202858836537745
-2.9716309730362336e-06,0.0,1759202858854647367
-2.5340874155241353e-06,0.0,1759202858875851994
-2.7797435045761443e-06,0.0,1759202858895667152
-2.0574808326554863e-06,0.0,1759202858915311163
-2.296271378775659e-06,0.0,1759202858935606668
-1.614125179223595e-06,0.0,1759202858955425352
-1.3976422935669278e-06,0.0,1759202858974948304
-1.4634414944875543e-06,0.0,1759202858996578254
-1.1407640732546486e-06,0.0,1759202859014254233
-9.353765780271346e-06,0.0,1759202859036461514
-2.123912848432951e-06,0.0,1759202859054585926
-5.493228392255385e-07,0.0,1759202859074711080
-9.093172204915664e-06,0.0,1759202859097078441
-3.0751431333484076e-06,0.0,1759202859114635306
-1.4113550439840298e-05,0.0,1759202859137518532
5.915942999278619e-06,0.0,1759202859155759055
7.5411447434771446e-06,0.0,1759202859174322394
-1.6058242236365902e-05,0.0,1759202859196148229
8.195637278612465e-06,0.0,1759202859215531141
-1.1497650057840661e-05,0.0,1759202859235653036
9.56002015561112e-06,0.0,1759202859255207988
1.0079321252616082e-05,0.0,1759202859274757515
1.1778891134287952e-06,0.0,1759202859297075146
5.939308911851547e-06,0.0,1759202859314483962
1.0563978088081807e-06,0.0,1759202859336809515
6.024140646213119e-06,0.0,1759202859354408539
1.1048946106892615e-05,0.0,1759202859376008182
-8.427621718234816e-06,0.0,1759202859396129618
9.563692960941002e-06,0.0,1759202859415135544
-8.556912356840204e-06,0.0,1759202859435334352
9.04366672496164e-06,0.0,1759202859455763418
1.0339644202074769e-05,0.0,1759202859474590943
1.0203615975349504e-05,0.0,1759202859495589738
3.175649558387089e-06,0.0,1759202859516102379
2.6924420155986044e-07,0.0,1759202859536316662
3.969911745898257e-06,0.0,1759202859554887020
8.138611986445812e-06,0.0,1759202859575550512
-9.73199308262032e-06,0.0,1759202859595584436
6.333882058043444e-06,0.0,1759202859615478689
-1.0340913217259613e-05,0.0,1759202859635673714
6.4496472255452314e-06,0.0,1759202859655918429
7.888368432592198e-06,0.0,1759202859674276220
-2.3067390189054445e-07,0.0,1759202859697049727
6.527861345724746e-06,0.0,1759202859714374969
1.7378847792389978e-06,0.0,1759202859736429863
7.079439384253512e-06,0.0,1759202859754743193
7.5977207112732515e-06,0.0,1759202859774631961
1.027782369859162e-07,0.0,1759202859796569511
7.2366649746300586e-06,0.0,1759202859815935722
1.064929339714e-05,0.0,1759202859835929673
8.909244646465618e-06,0.0,1759202859854907924
7.1806564204684274e-06,0.0,1759202859875791626
1.0762107255003835e-05,0.0,1759202859897412995
5.237154128376358e-06,0.0,1759202859915688889
8.834386057218647e-06,0.0,1759202859936614997
3.450271605033281e-06,0.0,1759202859955696958
2.7696704507606492e-06,0.0,1759202859974863201
4.347781543256737e-06,0.0,1759202859997183670
2.771775631389906e-06,0.0,1759202860014638567
3.5417948025087095e-06,0.0,1759202860036216938
2.030541482966391e-06,0.0,1759202860054330446
4.944736333865418e-07,0.0,1759202860075747099
4.845915269181773e-06,0.0,1759202860095688634
4.770867718923929e-07,0.0,1759202860115583015
4.488253211800856e-06,0.0,1759202860135772190
-5.950394045822568e-08,0.0,1759202860155702611
-3.745483438874095e-07,0.0,1759202860174869402
1.4503563516241238e-06,0.0,1759202860196667975
2.6156406056326445e-07,0.0,1759202860214657269
1.2134378229815086e-06,0.0,1759202860236663695
-1.0231563005028158e-08,0.0,1759202860254756596
-1.322573860570028e-06,0.0,1759202860275298325
2.779660993508766e-06,0.0,1759202860296115868
-1.3722186376742403e-06,0.0,1759202860315085735
2.492757805556431e-06,0.0,1759202860335987923
-1.6659233711973237e-06,0.0,1759202860355700453
-1.9903491895684907e-06,0.0,1759202860374951796
4.1035653024108844e-08,0.0,1759202860396759089
-1.5531672097725709e-06,0.0,1759202860414652253
-3.6696644202788313e-07,0.0,1759202860436229033
-1.6947205949833445e-06,0.0,1759202860454259132
-1.8165936398079852e-06,0.0,1759202860474651278
4.273902424966606e-08,0.0,1759202860496270941
-1.714558575843176e-06,0.0,1759202860515676444
2.4757484081617974e-07,0.0,1759202860535931985
-1.6114017934110206e-06,0.0,1759202860555470962
-1.852312669255644e-06,0.0,1759202860574830772
1.946501547306482e-06,0.0,1759202860595776430
-1.6048934927566283e-06,0.0,1759202860616049145
2.1585408665933995e-06,0.0,1759202860636035930
-1.8043847167072425e-06,0.0,1759202860655110439
-1.8975382797240083e-06,0.0,1759202860674405329
-1.4289104613512406e-07,0.0,1759202860696654421
-1.055077522616863e-06,0.0,1759202860714618854
-7.938828301530609e-08,0.0,1759202860736275908
-1.015385962999648e-06,0.0,1759202860754720913
-2.066073604298105e-06,0.0,1759202860775396346
-1.888129043813427e-05,0.0,1759202860795655743
-2.4261481515866713e-06,0.0,1759202860815205149
-1.7330865751338537e-05,0.0,1759202860836044915
2.9932271073939565e-07,0.0,1759202860855611553
1.4738304896928636e-06,0.0,1759202860874741575
-5.664121881349435e-06,0.0,1759202860896392277
-1.1169349449018614e-06,0.0,1759202860914468192
-4.616540768615686e-06,0.0,1759202860936875427
1.2157922816687085e-07,0.0,1759202860954558451
4.942314998822737e-06,0.0,1759202860975976876
-1.1070147645620208e-05,0.0,1759202860996042459
4.451198502808234e-06,0.0,1759202861015296205
-1.0398793297125877e-05,0.0,1759202861035628847
5.186563034395332e-06,0.0,1759202861055827966
6.543427885907213e-06,0.0,1759202861074328966
-8.442648027113964e-07,0.0,1759202861097031234
5.176153871055949e-06,0.0,1759202861114758187
7.819857896340587e-07,0.0,1759202861136177878
5.697505868246801e-06,0.0,1759202861154597941
6.204095525863734e-06,0.0,1759202861175095325
1.0120668293108523e-05,0.0,1759202861196303021
7.841294878817195e-06,0.0,1759202861214285040
1.048190061409471e-05,0.0,1759202861237251370
4.184404683986524e-06,0.0,1759202861255683786
-2.6357755314128342e-05,0.0,1759202861276497212
-1.1118853278498207e-05,0.0,1759202861294692293
4.848161269329891e-06,0.0,1759202861315819696
-9.69803724521556e-06,0.0,1759202861335980682
5.996158363306079e-06,0.0,1759202861355591789
6.520697868264625e-06,0.0,1759202861374931085
1.0384987888869198e-05,0.0,1759202861396503458
7.979185874095683e-06,0.0,1759202861414573436
8.767037601349429e-06,0.0,1759202861436692762
6.2823638929694174e-06,0.0,1759202861454411495
3.904274308253152e-06,0.0,1759202861476714969
9.721830664554248e-06,0.0,1759202861495997438
3.265605231510416e-06,0.0,1759202861515497952
8.497216269807642e-06,0.0,1759202861535790704
1.946884742741069e-06,0.0,1759202861555499641
1.0527711932360553e-06,0.0,1759202861574826972
-6.756023135439956e-06,0.0,1759202861596416769
-2.817609464206863e-06,0.0,1759202861614357462
-4.612321461379269e-06,0.0,1759202861636807520
-9.849179242686516e-07,0.0,1759202861654647443
2.792126437153793e-06,0.0,1759202861675351027
-1.0997350348756835e-05,0.0,1759202861696070300
2.60625128093382e-06,0.0,1759202861715664467
-1.0684572475953848e-05,0.0,1759202861735837878
3.5639353935063968e-06,0.0,1759202861755663572
4.876643291892212e-06,0.0,1759202861774557951
8.450675590391151e-06,0.0,1759202861796601246
5.1747688038360296e-06,0.0,1759202861814305312
6.424783626266175e-06,0.0,1759202861836773930
3.468080963851575e-06,0.0,1759202861854511521
2.2035629821062723e-06,0.0,1759202861875493655
5.461083447457466e-06,0.0,1759202861895698845
1.9608676147550792e-06,0.0,1759202861915039076
4.684732595912068e-06,0.0,1759202861935960060
1.1865347010262677e-06,0.0,1759202861955780057
3.77071235966005e-07,0.0,1759202861974628118
6.3403855481287464e-06,0.0,1759202861995849543
-5.6140901787634985e-08,0.0,1759202862015649299
5.845630411215491e-06,0.0,1759202862036147829
-8.278277869417191e-07,0.0,1759202862055743896
-1.215675244717766e-06,0.0,1759202862074863706
1.5784398231946566e-06,0.0,1759202862096393858
-2.622335277475506e-09,0.0,1759202862115755524
1.5321706593352612e-06,0.0,1759202862136259435
-1.1380873469800004e-07,0.0,1759202862155704891
-2.0790994148614553e-06,0.0,1759202862175802185
-1.6542713260996468e-05,0.0,1759202862196055651
-2.5101794279728996e-06,0.0,1759202862215611990
-1.5204295367065877e-05,0.0,1759202862236439663
3.2989301458175777e-07,0.0,1759202862255411313
1.9879247891675542e-06,0.0,1759202862274263783
-4.440387116873641e-06,0.0,1759202862296631982
1.3013371930110956e-06,0.0,1759202862315022249
-2.3657657409212145e-06,0.0,1759202862336520225
6.777127945273067e-07,0.0,1759202862354537075
4.130427408882877e-06,0.0,1759202862375218532
-8.09104052747145e-06,0.0,1759202862395828640
3.910835878013945e-06,0.0,1759202862415071550
-8.891702026894298e-06,0.0,1759202862435300803
3.901283355136811e-06,0.0,1759202862455890558
5.053149687602115e-06,0.0,1759202862474974600
-1.3891310337443423e-06,0.0,1759202862496810744
3.861945258524453e-06,0.0,1759202862514658678
1.8760512577962688e-07,0.0,1759202862536290208
4.468686039242675e-06,0.0,1759202862554616365
4.9676397526477565e-06,0.0,1759202862574671593
-6.975870646378289e-07,0.0,1759202862597021675
5.163975396997483e-06,0.0,1759202862615628367
-1.2032285838019121e-06,0.0,1759202862635295147
4.386175920507565e-06,0.0,1759202862656018823
5.27754033667822e-06,0.0,1759202862674405989
-6.67266929314759e-06,0.0,1759202862695474781
4.6726951523566216e-06,0.0,1759202862715637713
-7.066781024713241e-06,0.0,1759202862735614937
4.665981836870379e-06,0.0,1759202862755960935
5.0808992848994044e-06,0.0,1759202862774897115
-4.590833250934819e-07,0.0,1759202862796386489
2.4582516721942126e-06,0.0,1759202862814379801
-3.9387023100652836e-07,0.0,1759202862836789845
2.717891444470348e-06,0.0,1759202862854526398
5.936827910406949e-06,0.0,1759202862875611449
-5.888469760879822e-06,0.0,1759202862895643890
4.891668280010604e-06,0.0,1759202862915140267
-5.740580622137178e-06,0.0,1759202862935926360
5.628514154966275e-06,0.0,1759202862955284707
5.878917564470098e-06,0.0,1759202862974336659
7.336439240734959e-07,0.0,1759202862996550473
3.334060296743252e-06,0.0,1759202863014516068
4.920857870785036e-07,0.0,1759202863036189547
3.2297830416405193e-06,0.0,1759202863054295271
6.175018312659526e-06,0.0,1759202863075444914
-4.891181792708643e-06,0.0,1759202863095433953
4.862965795783597e-06,0.0,1759202863115483235
-5.448114703307466e-06,0.0,1759202863135492896
4.6995303376183e-06,0.0,1759202863155713365
5.4767050144630435e-06,0.0,1759202863174461180
1.0544628900785842e-05,0.0,1759202863196843683
5.61136639979498e-06,0.0,1759202863214316624
7.650279845818776e-06,0.0,1759202863236989552
3.3445028960848065e-06,0.0,1759202863254593824
2.2561897538389354e-06,0.0,1759202863274568420
6.2697254647642545e-06,0.0,1759202863296356489
1.1666536323102145e-06,0.0,1759202863315641858
5.753721072453658e-06,0.0,1759202863335333356
7.451823153678922e-07,0.0,1759202863355749704
-3.885176494845773e-07,0.0,1759202863374344663
8.595839653414714e-06,0.0,1759202863395944536
-1.1725166770229483e-06,0.0,1759202863415338458
7.630717925017974e-06,0.0,1759202863436281575
-2.4401303002984283e-06,0.0,1759202863455748917
-2.914124872178209e-06,0.0,1759202863474274207
1.366291848314179e-06,0.0,1759202863496291779
-1.082058779174571e-06,0.0,1759202863514314375
1.135094442362985e-06,0.0,1759202863536753779
-1.4602046141574253e-06,0.0,1759202863554441762
-4.169166254347885e-06,0.0,1759202863575405245
5.287961496332751e-06,0.0,1759202863595658390
-3.3338091367564803e-06,0.0,1759202863615561401
5.270432636659256e-06,0.0,1759202863636255713
-4.0587578890967126e-06,0.0,1759202863655539723
-4.739262507871331e-06,0.0,1759202863674354261
-2.777584206967757e-07,0.0,1759202863696602264
-3.752743875800469e-06,0.0,1759202863714406050
-1.1814610293565446e-06,0.0,1759202863736453372
-3.957796018872178e-06,0.0,1759202863755066318
-4.793483089629816e-06,0.0,1759202863775533831
-1.5169827917585592e-05,0.0,1759202863795998121
-4.5725181352415764e-06,0.0,1759202863815624686
-1.4169944051234497e-05,0.0,1759202863835770405
-2.637772887600903e-06,0.0,1759202863855441870
-1.1154671300845476e-06,0.0,1759202863874409471
-1.6451985467107818e-05,0.0,1759202863896349329
-3.1402988657809786e-06,0.0,1759202863914890813
-1.083176554537212e-05,0.0,1759202863936979233
1.2679385658602138e-06,0.0,1759202863954405559
3.4194757993135424e-06,0.0,1759202863974653277
5.81250470384068e-07,0.0,1759202863996433371
3.2624658454548027e-06,0.0,1759202864014439649
7.66693700902532e-07,0.0,1759202864036373040
3.282438637015908e-06,0.0,1759202864055114849
6.265776840766534e-06,0.0,1759202864075202156
-3.2283258487726523e-06,0.0,1759202864097665007
6.996756671348319e-06,0.0,1759202864115647538
-2.365213623509074e-05,0.0,1759202864135722785
5.378633109539625e-06,0.0,1759202864155605637
6.91285367486813e-06,0.0,1759202864174854219
1.4391374531338323e-05,0.0,1759202864196504770
1.053358864157441e-05,0.0,1759202864214590779
1.2387832724876044e-05,0.0,1759202864236379952
8.326695156545682e-06,0.0,1759202864254422430
4.173257614675975e-06,0.0,1759202864275573908
1.3971504387203234e-05,0.0,1759202864296479579
2.582146243869833e-06,0.0,1759202864315631433
1.2404342831461276e-05,0.0,1759202864335610325
1.0019761130972986e-06,0.0,1759202864355263330
1.479632855674995e-07,0.0,1759202864374970535
4.682952942437543e-06,0.0,1759202864396347340
1.6585467641827936e-06,0.0,1759202864414375549
3.820199238328142e-06,0.0,1759202864436866582
6.532033614066891e-07,0.0,1759202864454284293
-2.565832621675116e-06,0.0,1759202864475467471
7.4968940580251226e-06,0.0,1759202864495888561
-2.5347519311195376e-06,0.0,1759202864515271509
7.065116600322696e-06,0.0,1759202864535641481
-3.158141416562842e-06,0.0,1759202864555302815
-4.007666293436333e-06,0.0,1759202864574728144
9.58922811466827e-07,0.0,1759202864596200846
-2.921523998960565e-06,0.0,1759202864614345313
-1.760013131187918e-07,0.0,1759202864636305723
-3.390056589393737e-06,0.0,1759202864654766398
-3.766641764568447e-06,0.0,1759202864674801073
5.823558986496468e-07,0.0,1759202864696768061
-1.80234498048602e-06,0.0,1759202864714874725
5.735023924728543e-07,0.0,1759202864736731756
-4.026372215660246e-06,0.0,1759202864755534000
-4.5871143615911625e-06,0.0,1759202864774849918
4.475406561250444e-06,0.0,1759202864796247079
-4.574627119027586e-06,0.0,1759202864815111741
4.205916103018365e-06,0.0,1759202864835823801
-5.038947723136252e-06,0.0,1759202864855292514
-5.187199067598596e-06,0.0,1759202864874693849
-9.783810290262817e-07,0.0,1759202864897355138
-3.1633998583401453e-06,0.0,1759202864914892949
-8.253925680552591e-07,0.0,1759202864936796692
-3.095619651714773e-06,0.0,1759202864954514960
-5.49975817556646e-06,0.0,1759202864975324985
-1.672798833249357e-05,0.0,1759202864996117948
-5.071262793196979e-06,0.0,1759202865015740531
-1.5192261554416468e-05,0.0,1759202865036713284
-2.1291129147486633e-06,0.0,1759202865055582810
-5.452149989489753e-07,0.0,1759202865074671739
-5.670461117603378e-06,0.0,1759202865096668703
-6.02622119161698e-07,0.0,1759202865114417545
-3.277278047006055e-06,0.0,1759202865137358786
-5.977018310163467e-07,0.0,1759202865155023577
2.404952037355345e-06,0.0,1759202865175296717
1.1055756131253023e-05,0.0,1759202865195662554
2.7953568686458645e-06,0.0,1759202865215157861
1.1176712983786576e-05,0.0,1759202865235791667
1.3513976944168382e-06,0.0,1759202865255333930
1.53862344349621e-07,0.0,1759202865274756601
4.246672131932193e-06,0.0,1759202865297188820
9.053751788017211e-08,0.0,1759202865314317765
2.3453838434217826e-06,0.0,1759202865336626424
-1.0265713236120875e-06,0.0,1759202865354599982
-1.5878897050140005e-06,0.0,1759202865374810364
-8.089984919547368e-06,0.0,1759202865397029752
-4.5796058866153285e-06,0.0,1759202865414773101
-7.0206009891522485e-06,0.0,1759202865436176759
-3.4236686501934055e-06,0.0,1759202865454654111
4.473221111845424e-07,0.0,1759202865475411467
-1.0479341590235799e-05,0.0,1759202865495840816
7.069314398313935e-07,0.0,1759202865515415897
-9.432655328118111e-06,0.0,1759202865536176260
2.426053547335274e-06,0.0,1759202865555198641
2.9626332422572637e-06,0.0,1759202865574984015
-1.8606987844676736e-06,0.0,1759202865597147322
1.024047436180514e-06,0.0,1759202865614903675
-1.5629423529958912e-06,0.0,1759202865636509338
1.3490923396655502e-06,0.0,1759202865654679687
4.502666150871013e-06,0.0,1759202865675540383
-6.09026456661005e-06,0.0,1759202865696068872
4.135716826163537e-06,0.0,1759202865715173544
-5.588817567346162e-06,0.0,1759202865736130442
4.916181090569253e-06,0.0,1759202865755594587
5.608541774201709e-06,0.0,1759202865775204421
3.177483735680427e-07,0.0,1759202865796502328
4.187373249047637e-06,0.0,1759202865814607145
1.2268019957625422e-06,0.0,1759202865836231645
3.129339977631237e-06,0.0,1759202865854341782
5.250829142338304e-06,0.0,1759202865876032526
-4.02942097270056e-06,0.0,1759202865896037293
4.358815875131555e-06,0.0,1759202865915444498
-5.159877904135294e-06,0.0,1759202865935427436
4.225527799192639e-06,0.0,1759202865955399565
4.902601617024217e-06,0.0,1759202865974804023
1.0477319275800933e-05,0.0,1759202865996702589
5.302928879829058e-06,0.0,1759202866014343354
7.653541543362745e-06,0.0,1759202866036230521
3.241804512870358e-06,0.0,1759202866054652365
3.710805701661212e-05,0.0,1759202866075885196
1.2029574572387501e-06,0.0,1759202866095970342
-1.4867216965707632e-06,0.0,1759202866114552195
1.0924921284244456e-06,0.0,1759202866136712632
-1.732675976818936e-06,0.0,1759202866155019075
-4.879747779503167e-06,0.0,1759202866175646364
5.726541106676951e-06,0.0,1759202866196133052
-4.255703032109732e-06,0.0,1759202866215744357
5.642189323437973e-06,0.0,1759202866236342444
-4.879555420892432e-06,0.0,1759202866255812175
-5.161714662385018e-06,0.0,1759202866274468473
-3.9996210839644505e-07,0.0,1759202866296649925
-2.873842054291254e-06,0.0,1759202866314360556
-2.9006686170065416e-07,0.0,1759202866336463875
-2.7943028153237934e-06,0.0,1759202866354941297
-5.653452963439848e-06,0.0,1759202866375554709
-1.5865478639110173e-05,0.0,1759202866396101715
-5.066649957603946e-06,0.0,1759202866415235881
-1.4552202172949764e-05,0.0,1759202866435260557
-3.273896031458568e-06,0.0,1759202866455274216
-2.182793891674094e-06,0.0,1759202866474332151
-6.2576045832694185e-06,0.0,1759202866496703870
-3.063824006295273e-06,0.0,1759202866514621368
-1.528345275332178e-05,0.0,1759202866536754472
-6.3898235967385524e-06,0.0,1759202866555064681
3.0991920410634023e-06,0.0,1759202866575798101
1.1006308031905263e-05,0.0,1759202866595698976
5.200384076148092e-06,0.0,1759202866615697678
1.5065329932940732e-05,0.0,1759202866636294195
2.588253258690293e-06,0.0,1759202866655041172
1.0326846523492328e-06,0.0,1759202866674336781
5.73104430875012e-06,0.0,1759202866696389225
1.010777663427283e-06,0.0,1759202866714266632
3.638592149433041e-06,0.0,1759202866736432099
-3.4166237847532117e-07,0.0,1759202866754609754
-1.1019717771269755e-06,0.0,1759202866774575524
3.4513793826905136e-06,0.0,1759202866796556811
5.416865108604726e-07,0.0,1759202866814650024
2.9409061306910553e-06,0.0,1759202866836205235
-4.047139928688623e-08,0.0,1759202866854497393
-3.186365461364221e-06,0.0,1759202866875732958
7.347855666075734e-06,0.0,1759202866895675718
-2.4960898836481203e-06,0.0,1759202866915626609
7.241267536059796e-06,0.0,1759202866935766455
-3.3436032996078697e-06,0.0,1759202866955065719
-3.732764102793804e-06,0.0,1759202866974629694
-9.716458522233066e-06,0.0,1759202866996914734
-6.1878107809099616e-06,0.0,1759202867014747923
-8.199391373820461e-06,0.0,1759202867037097119
-4.449842988322437e-06,0.0,1759202867054286917
-7.070259636567127e-07,0.0,1759202867075206055
-1.0803498354337953e-05,0.0,1759202867095997607
-1.9690259852281338e-07,0.0,1759202867115456747
-1.0049586902004917e-05,0.0,1759202867135430716
8.142863176133791e-07,0.0,1759202867155265977
1.9569781560051004e-06,0.0,1759202867174723478
7.631721737739255e-06,0.0,1759202867196495609
2.9405455099957803e-06,0.0,1759202867214371416
5.323735294269336e-06,0.0,1759202867237101436
1.0524625358089523e-06,0.0,1759202867254304609
-4.529043702794238e-07,0.0,1759202867275849054
5.2053196139680535e-06,0.0,1759202867295512521
1.6513501223736306e-07,0.0,1759202867315282794
8.905887420409772e-06,0.0,1759202867335367270
-5.48420378167027e-07,0.0,1759202867355668631
-1.6023778375434704e-06,0.0,1759202867374780095
-7.060020379601793e-06,0.0,1759202867396954476
-2.3581466679763396e-06,0.0,1759202867414221455
-4.914431486099896e-06,0.0,1759202867436437044
-8.211013268680237e-07,0.0,1759202867454449508
3.1263208726931583e-08,0.0,1759202867474957844
-4.364325252067613e-06,0.0,1759202867496706875
-1.3309333317744716e-06,0.0,1759202867514446382
-7.084889991684294e-06,0.0,1759202867537027800
4.837403232793209e-07,0.0,1759202867554617720
3.977687980750638e-06,0.0,1759202867575781839
-8.983683226918589e-06,0.0,1759202867595877118
3.5137710264566667e-06,0.0,1759202867615165328
-6.122631952362412e-06,0.0,1759202867635912877
4.679514947807561e-06,0.0,1759202867655298585
4.972554480245065e-06,0.0,1759202867674512285
4.4160465258703584e-07,0.0,1759202867696765983
2.8498040039245166e-06,0.0,1759202867714357979
3.436359415750979e-07,0.0,1759202867736223150
2.8042733886141523e-06,0.0,1759202867754362786
5.46162166953619e-06,0.0,1759202867775402298
1.6859779212584453e-05,0.0,1759202867795701806
5.61375419007094e-06,0.0,1759202867815275789
1.5685753614606435e-05,0.0,1759202867835717973
3.337300865940692e-06,0.0,1759202867855321643
1.6855633239326233e-06,0.0,1759202867874741612
6.713800421688712e-06,0.0,1759202867896160397
1.8292854320233104e-06,0.0,1759202867914682387
4.433014123955343e-06,0.0,1759202867936662021
1.5348743931575626e-07,0.0,1759202867954317689
-1.3299865405476357e-06,0.0,1759202867975969272
-1.0706728107263276e-05,0.0,1759202867995879574
-2.033456631113373e-06,0.0,1759202868015552350
-1.0528224068660387e-05,0.0,1759202868035314089
-1.0337329981262973e-06,0.0,1759202868055305700
1.0542434050709255e-07,0.0,1759202868074769726
-4.49922881374832e-06,0.0,1759202868096219162
-2.9364572165808295e-07,0.0,1759202868114277618
-2.626007869432455e-06,0.0,1759202868136930976
9.538914243559348e-07,0.0,1759202868154723455
1.5376409883085876e-06,0.0,1759202868175652900
-2.7211508930089344e-06,0.0,1759202868196705671
-1.2247813829401635e-07,0.0,1759202868214588938
-2.2704254358707566e-06,0.0,1759202868236316724
3.5007497988463297e-07,0.0,1759202868254537840
3.153988424747858e-06,0.0,1759202868275620564
-6.1246336398247995e-06,0.0,1759202868295776107
2.781448262652367e-06,0.0,1759202868315151142
-5.6359047854903054e-06,0.0,1759202868336008252
3.569553990569793e-06,0.0,1759202868355498238
3.87100093854244e-06,0.0,1759202868374355162
1.0249243426292398e-05,0.0,1759202868396354682
6.505489975668052e-06,0.0,1759202868414364249
8.6843811055528e-06,0.0,1759202868436477662
4.792775375470785e-06,0.0,1759202868454430058
1.7682595320002558e-05,0.0,1759202868476767372
7.784321309090486e-06,0.0,1759202868494961946
-2.7459067474584e-06,0.0,1759202868515543864
7.89447207980084e-06,0.0,1759202868536013668
-3.6128352576853045e-06,0.0,1759202868555701044
-4.61574286687968e-06,0.0,1759202868574329116
-9.233518546078077e-06,0.0,1759202868597214332
-4.694600729498879e-06,0.0,1759202868614320493
-6.590261987908e-06,0.0,1759202868637233036
-2.6972944122912574e-06,0.0,1759202868654813922
-1.130447670365306e-06,0.0,1759202868675414743
-5.734460664854471e-06,0.0,1759202868696033280
-1.135647851946006e-06,0.0,1759202868715658969
-1.6788291162373165e-05,0.0,1759202868735413008
-2.5192886325743256e-06,0.0,1759202868755343610
5.457422307180838e-07,0.0,1759202868774607997
-1.4148581464307254e-06,0.0,1759202868797440853
1.5677628016111198e-06,0.0,1759202868814214344
-5.734511765981804e-07,0.0,1759202868837038395
2.1130501045981675e-06,0.0,1759202868854676659
2.4438789601350483e-06,0.0,1759202868875146735
-1.1275640358496559e-06,0.0,1759202868896703998
9.20487269905578e-07,0.0,1759202868914415492
-8.921376123828376e-07,0.0,1759202868936952430
1.2358878163361691e-06,0.0,1759202868954618775
3.4175101910588054e-06,0.0,1759202868975932908
-4.893850555304352e-06,0.0,1759202868995770844
2.842761524606494e-06,0.0,1759202869015101559
-4.704958044764945e-06,0.0,1759202869035556117
3.246169505834458e-06,0.0,1759202869055206882
3.482767693601149e-06,0.0,1759202869074766005
-3.93762945346999e-08,0.0,1759202869097018785
1.921975172895111e-06,0.0,1759202869114368476
-8.436041831798398e-09,0.0,1759202869136348776
1.953807779532651e-06,0.0,1759202869154453391
4.0142612391522545e-06,0.0,1759202869175997734
-3.7967589585881286e-06,0.0,1759202869195806392
3.2773458381859644e-06,0.0,1759202869215410046
-3.943752444482875e-06,0.0,1759202869235424819
3.1426697229881415e-06,0.0,1759202869255836267
3.700274061320312e-06,0.0,1759202869274666863
1.3950168235650056e-07,0.0,1759202869297030023
2.9816811990145743e-06,0.0,1759202869314532043
9.49748587733904e-07,0.0,1759202869337035346
3.346571419571268e-06,0.0,1759202869354373526
-4.965444405513273e-06,0.0,1759202869376810136
2.6767486381430704e-06,0.0,1759202869394540640
5.27164844547489e-06,0.0,1759202869415249355
-8.822357872537229e-07,0.0,1759202869435903434
5.128440865649739e-06,0.0,1759202869455339177
-8.361423845513572e-06,0.0,1759202869475441949
2.6098111166425203e-06,0.0,1759202869496090793
4.762560844258997e-06,0.0,1759202869514706251
2.5990107071681026e-06,0.0,1759202869536475175
4.511912011725328e-06,0.0,1759202869554863242
4.548906512181086e-06,0.0,1759202869574821835
1.3842402158059985e-06,0.0,1759202869596307659
2.8202631123356833e-06,0.0,1759202869614297594
-1.7564640984644638e-05,0.0,1759202869636810987
2.1657772554635335e-07,0.0,1759202869654819095
-3.9856604440016416e-05,0.0,1759202869677373687
-1.1751880100335034e-05,0.0,1759202869694992575
1.670225387174673e-05,0.0,1759202869716014030
-9.675304456706917e-06,0.0,1759202869736245619
1.809781487173616e-05,0.0,1759202869755380935
1.8224392830020835e-05,0.0,1759202869775135526
1.6210307248091558e-05,0.0,1759202869797188375
1.602461931036734e-05,0.0,1759202869814628683
1.348535523481446e-05,0.0,1759202869836569485
1.3411582969655826e-05,0.0,1759202869854961909
1.3587156649695286e-05,0.0,1759202869875966363
7.482705761228995e-06,0.0,1759202869896019690
1.0996867857765791e-05,0.0,1759202869915889991
5.448931428793646e-06,0.0,1759202869936104414
9.484946831431021e-06,0.0,1759202869955408435
9.095638333388464e-06,0.0,1759202869974464521
1.6137059711683025e-05,0.0,1759202869997199962
8.373827631237624e-06,0.0,1759202870014466539
1.153846604825515e-05,0.0,1759202870036787728
5.0218451427520725e-06,0.0,1759202870054702658
2.4008947161954605e-06,0.0,1759202870075834760
1.047496718709275e-05,0.0,1759202870095483322
2.6908796078975044e-06,0.0,1759202870115179117
3.412701407522112e-05,0.0,1759202870135358937
2.7872908265696025e-06,0.0,1759202870155951089
-1.2013613627871683e-06,0.0,1759202870174778559
-5.4156095839958965e-06,0.0,1759202870196814330
-3.013524370611974e-06,0.0,1759202870214218984
-4.347691511096676e-06,0.0,1759202870236664901
-1.9619851636004905e-06,0.0,1759202870254635312
-1.3496031253154393e-06,0.0,1759202870274952350
-3.6777996882190303e-06,0.0,1759202870296474831
-1.924073221625651e-06,0.0,1759202870314843486
-3.0532456745697933e-06,0.0,1759202870336501507
-1.2990827822514676e-06,0.0,1759202870354903161
5.689773765236473e-07,0.0,1759202870376003637
-5.0151947049372395e-06,0.0,1759202870395793993
5.115180939793628e-07,0.0,1759202870415350234
-4.6226658299514664e-06,0.0,1759202870435725467
1.028884189850707e-06,0.0,1759202870455524886
1.3257434653669206e-06,0.0,1759202870474556939
-1.10334564811136e-06,0.0,1759202870496224871
3.094510844562854e-07,0.0,1759202870514307856
-1.1348140820963425e-05,0.0,1759202870536186335
-4.108175666592995e-06,0.0,1759202870554556161
3.4630314556550584e-06,0.0,1759202870575680090
-1.1902483338131147e-06,0.0,1759202870595851192
3.863778419033756e-06,0.0,1759202870615626856
-1.0107186820711255e-06,0.0,1759202870635534246
3.5830786612594814e-06,0.0,1759202870655762717
3.8027657557804835e-06,0.0,1759202870674509195
1.2900024851636404e-06,0.0,1759202870696284051
2.9484170815789098e-06,0.0,1759202870714567071
1.4877784579261103e-06,0.0,1759202870736299408
2.868426991516422e-06,0.0,1759202870754745318
3.202672819065118e-06,0.0,1759202870775963531
1.7025292205893166e-05,0.0,1759202870796860116
2.048630615151274e-06,0.0,1759202870815239054
1.5357945688311093e-05,0.0,1759202870835434777
6.831237514017822e-07,0.0,1759202870855816909
-1.1190386816258703e-06,0.0,1759202870874451108
1.7985035208243098e-05,0.0,1759202870895466448
-1.2393976943781272e-06,0.0,1759202870915615921
2.9901731838224385e-06,0.0,1759202870936292378
-2.3635481187315482e-06,0.0,1759202870954816899
-3.2474746750930618e-06,0.0,1759202870975037242
-7.063875967471113e-06,0.0,1759202870997418402
-5.10479974929572e-06,0.0,1759202871014343691
-6.034604199566828e-06,0.0,1759202871036308072
-4.07356802778362e-06,0.0,1759202871054802882
-2.064739171432464e-06,0.0,1759202871076275439
-7.084173833289554e-06,0.0,1759202871096430390
-1.4356416264933326e-06,0.0,1759202871115389472
-6.115014422753705e-06,0.0,1759202871135871868
-5.402357932388964e-07,0.0,1759202871155718899
-1.1581421338889714e-07,0.0,1759202871175553142
-2.348058435761234e-06,0.0,1759202871196552148
-8.633559605042999e-07,0.0,1759202871214582630
-1.958370665133123e-06,0.0,1759202871236207236
-4.5667134700172936e-07,0.0,1759202871254330328
1.1054072527841095e-06,0.0,1759202871275674967
1.2037366176986914e-06,0.0,1759202871294323528
-2.5483578264639726e-06,0.0,1759202871316513937
-2.7526313189546675e-05,0.0,1759202871335339953
-1.3100262557771402e-06,0.0,1759202871355262540
1.788356364646296e-06,0.0,1759202871374305392
1.0632244721404307e-06,0.0,1759202871397100430
1.946522819623289e-06,0.0,1759202871414703798
1.006982132088835e-05,0.0,1759202871436326665
4.099589535737048e-06,0.0,1759202871454978211
1.5964253495093226e-06,0.0,1759202871475248549
1.7723206405957545e-05,0.0,1759202871495742980
1.3374368623586602e-06,0.0,1759202871515662072
1.5527821424686475e-05,0.0,1759202871535679347
-5.189342153344293e-07,0.0,1759202871555443825
-2.2883748663695995e-06,0.0,1759202871574347212
-4.883757848114825e-06,0.0,1759202871596698050
-2.9400666110132067e-06,0.0,1759202871614305826
4.43016012439374e-06,0.0,1759202871636426760
-7.90937819764307e-07,0.0,1759202871654453265
-1.7370733869566459e-06,0.0,1759202871674725997
5.113874862072863e-06,0.0,1759202871697456438
4.810674933275536e-07,0.0,1759202871714541193
4.143106100379341e-06,0.0,1759202871736221268
-2.519015010966544e-07,0.0,1759202871754946096
-5.017179653369848e-06,0.0,1759202871776411677
-9.925156538743137e-06,0.0,1759202871796283464
-5.107190247170293e-06,0.0,1759202871815775375
-9.336185545301308e-06,0.0,1759202871835562520
-3.883267567566619e-06,0.0,1759202871855640356
-3.137471564916527e-06,0.0,1759202871874363285
-4.808987730274238e-06,0.0,1759202871896856687
-3.145302138891438e-06,0.0,1759202871914719708
-3.940532524585894e-06,0.0,1759202871936194440
-2.350152648903376e-06,0.0,1759202871954826228
-6.683916371265419e-07,0.0,1759202871975712683
-5.785370784535958e-06,0.0,1759202871995575264
-6.026018988886094e-07,0.0,1759202872015314307
-5.251448686623294e-06,0.0,1759202872035750890
1.0005390550952259e-07,0.0,1759202872055580479
6.879161157549226e-07,0.0,1759202872074792676
-1.2137841154337648e-05,0.0,1759202872096273508
-1.4563212445093661e-06,0.0,1759202872114420318
-7.451638120220407e-06,0.0,1759202872137287329
2.088326565340118e-06,0.0,1759202872154685100
5.21551280415859e-06,0.0,1759202872176105206
3.4148409073206763e-06,0.0,1759202872195472953
4.891370801170096e-06,0.0,1759202872215755993
1.3759677560544337e-06,0.0,1759202872235505041
4.240531803624018e-06,0.0,1759202872255749611
4.199811025780653e-06,0.0,1759202872274848025
-3.2000600642970477e-07,0.0,1759202872295875036
3.6646031106324114e-06,0.0,1759202872315138332
2.4135864472382235e-06,0.0,1759202872336683554
3.335775188105229e-06,0.0,1759202872354505861
3.245223691418232e-06,0.0,1759202872374957724
1.2640186563672904e-06,0.0,1759202872397154608
2.090812632402907e-06,0.0,1759202872415017032
9.862479309734437e-07,0.0,1759202872436681296
1.8926227453709082e-06,0.0,1759202872454586768
2.88628190388802e-06,0.0,1759202872475326402
-1.0879362312927719e-06,0.0,1759202872495464437
2.302396956418376e-06,0.0,1759202872515643629
-1.336923465201682e-06,0.0,1759202872536116692
2.426931089329251e-06,0.0,1759202872555131810
2.4486855082168513e-06,0.0,1759202872574501903
6.788824211447974e-07,0.0,1759202872596485360
1.4906720405070964e-06,0.0,1759202872614537900
5.180632317554118e-07,0.0,1759202872636322939
1.3878746683585633e-06,0.0,1759202872654492209
2.3346401395744193e-06,0.0,1759202872675413218
-1.3488362823283208e-06,0.0,1759202872695456880
1.8709211957653117e-06,0.0,1759202872715283207
-1.5244530768525222e-06,0.0,1759202872735452130
1.8456716564039003e-06,0.0,1759202872755440067
2.0635503149012456e-06,0.0,1759202872774594399
6.019786132150703e-07,0.0,1759202872796291119
1.622147880862624e-06,0.0,1759202872814480716
-7.64161276741129e-06,0.0,1759202872836183483
2.1728513031975629e-07,0.0,1759202872854248555
2.986841220130547e-06,0.0,1759202872875826580
-1.7494008372640874e-05,0.0,1759202872896229000
2.8707149502289883e-06,0.0,1759202872915619069
-1.6869352218165052e-05,0.0,1759202872935598984
4.147240700537953e-06,0.0,1759202872955482578
6.096614977943778e-06,0.0,1759202872974948941
-4.861387328077459e-06,0.0,1759202872996772404
4.3040224987046085e-06,0.0,1759202873014726731
-1.6489317622438034e-06,0.0,1759202873037010438
6.188874829392063e-06,0.0,1759202873054665080
7.202389977929348e-06,0.0,1759202873074657341
-2.449444073504036e-06,0.0,1759202873096977947
3.3145251783392158e-06,0.0,1759202873114375527
-1.7926990607440937e-06,0.0,1759202873137018342
3.929943437503383e-06,0.0,1759202873155098566
1.009509056607869e-05,0.0,1759202873176068031
9.501600384628389e-06,0.0,1759202873196147932
9.362516721928926e-06,0.0,1759202873215097433
8.40328293125437e-06,0.0,1759202873236138708
7.712754101879167e-06,0.0,1759202873255483448
6.952452239197173e-06,0.0,1759202873275018706
6.236180642678346e-06,0.0,1759202873296408941
5.629566326076469e-06,0.0,1759202873314256641
5.055995432245531e-06,0.0,1759202873337223453
4.5665021987607465e-06,0.0,1759202873354657295
4.128080349829217e-06,0.0,1759202873375744478
3.6713858136137764e-06,0.0,1759202873396441933
3.347018349098343e-06,0.0,1759202873415502513
2.9776389102016417e-06,0.0,1759202873436376850
2.7187911979170214e-06,0.0,1759202873455416759
2.4515924769294215e-06,0.0,1759202873474409055
2.195672670044601e-06,0.0,1759202873497141422
1.986807927521599e-06,0.0,1759202873514312656
1.7843656563031007e-06,0.0,1759202873536630366
1.6128357389727202e-06,0.0,1759202873554374518
1.4542736617000918e-06,0.0,1759202873575496932
1.305641843197069e-06,0.0,1759202873595617509
1.178210852178536e-06,0.0,1759202873615595367
1.060356683432154e-06,0.0,1759202873636037832
9.553074252447262e-07,0.0,1759202873655192521
8.59895528211515e-07,0.0,1759202873674632486
7.881117447250135e-07,0.0,1759202873695472466
6.97094596477475e-07,0.0,1759202873715689959
6.327471406573324e-07,0.0,1759202873738361345
5.633110167228083e-07,0.0,1759202873755007695
5.057056376639952e-07,0.0,1759202873774556686
1.0885812455568235e-05,0.0,1759202873796663715
4.84026710240479e-06,0.0,1759202873814391873
9.143021847555693e-06,0.0,1759202873836655028
2.882079926753176e-06,0.0,1759202873854431051
-3.6520125063609497e-06,0.0,1759202873875239089
1.5415476549330956e-05,0.0,1759202873896358995
-4.933943230136905e-06,0.0,1759202873915026909
1.3488168357982991e-05,0.0,1759202873935781714
-6.98145427652374e-06,0.0,1759202873955031986
-7.700539041349428e-06,0.0,1759202873974250913
-1.9401262585021536e-05,0.0,1759202873997207024
-1.2196116845229354e-05,0.0,1759202874014654082
-1.6451536676243023e-05,0.0,1759202874036317336
-9.200873066925426e-06,0.0,1759202874054568324
-3.3497416291492964e-05,0.0,1759202874076868768
-5.194471717546539e-06,0.0,1759202874094872537
5.184741979033332e-06,0.0,1759202874115823303
-1.5924685690326898e-05,0.0,1759202874135429485
5.722038505597145e-06,0.0,1759202874155239783
7.657660569995497e-06,0.0,1759202874174393354
7.972992811497477e-06,0.0,1759202874196742483
7.372742843530334e-06,0.0,1759202874214368859
6.789010018685598e-06,0.0,1759202874236245768
6.071253196588166e-06,0.0,1759202874254531097
5.448771204304677e-06,0.0,1759202874276156486
5.092457115855252e-06,0.0,1759202874295690686
4.42422643682594e-06,0.0,1759202874315671399
4.162135017850896e-06,0.0,1759202874335469383
3.5782226658538196e-06,0.0,1759202874356399046
3.1973734878467426e-06,0.0,1759202874374894429
2.3945865995125457e-06,0.0,1759202874396235741
2.5845320577501524e-06,0.0,1759202874415645264
1.96357107169959e-06,0.0,1759202874436054663
2.1510917295279256e-06,0.0,1759202874455642726
1.9651388643347944e-06,0.0,1759202874475100143
1.6163028075212715e-06,0.0,1759202874496789936
1.5443888559891465e-06,0.0,1759202874514859311
1.307064757059398e-06,0.0,1759202874536356807
1.2685837201278487e-06,0.0,1759202874554616814
1.2476770968067178e-06,0.0,1759202874576334120
7.718277570178033e-07,0.0,1759202874595796426
1.0090383730542878e-06,0.0,1759202874615173345
-1.9721943827189008e-05,0.0,1759202874635485198
-3.7863526880295727e-07,0.0,1759202874655675027
1.0540602255853904e-06,0.0,1759202874674422980
-7.75424821363962e-06,0.0,1759202874696436347
-1.983974680586845e-06,0.0,1759202874714316397
-6.3579955580797695e-06,0.0,1759202874736648781
-4.3400304830813326e-07,0.0,1759202874754339383
5.667657051559222e-06,0.0,1759202874775556727
6.285016918799943e-06,0.0,1759202874795371676
5.719687501650525e-06,0.0,1759202874815537855
5.850585803979322e-06,0.0,1759202874835307434
4.7082844803577e-06,0.0,1759202874855782786
4.164788176319149e-06,0.0,1759202874874837228
4.06220803208274e-06,0.0,1759202874896425884
3.4011992883562846e-06,0.0,1759202874914795041
3.233432652812567e-06,0.0,1759202874936446237
2.680141411063858e-06,0.0,1759202874954299373
2.3236107573894056e-06,0.0,1759202874976057355
2.8052187180861278e-06,0.0,1759202874995453036
1.995261323020393e-06,0.0,1759202875015802019
2.390645130351383e-06,0.0,1759202875035722881
1.5774767124073203e-06,0.0,1759202875055673325
1.2874802376584063e-06,0.0,1759202875074466985
2.316748300126664e-06,0.0,1759202875095832104
9.535328137840005e-07,0.0,1759202875115278102
1.1987125428538338e-06,0.0,1759202875136900523
6.757879189260042e-07,0.0,1759202875154617795
5.227343124921313e-07,0.0,1759202875175054115
9.768193270390635e-07,0.0,1759202875197055909
5.762120137062736e-07,0.0,1759202875214807048
7.991804208056906e-07,0.0,1759202875236817832
3.9503741707747934e-07,0.0,1759202875254360580
-1.0877200258031868e-08,0.0,1759202875275629711
1.186296539436732e-06,0.0,1759202875295394641
-5.3480259913112594e-09,0.0,1759202875315163943
-1.9101353689773377e-05,0.0,1759202875335820400
-8.727847131263344e-07,0.0,1759202875355848975
4.838309783975978e-07,0.0,1759202875374916675
2.4060204280913003e-06,0.0,1759202875396651462
2.090332100731397e-06,0.0,1759202875414728773
2.2511384177047973e-06,0.0,1759202875436390808
1.8110398906770734e-06,0.0,1759202875454521485
1.378511108902377e-06,0.0,1759202875475545892
2.0685159818853167e-06,0.0,1759202875496467218
1.0391593522056288e-06,0.0,1759202875515092154
1.7005290741640886e-06,0.0,1759202875536422950
6.781773476464635e-07,0.0,1759202875555391034
5.108496740351789e-07,0.0,1759202875574918356
8.564341340503262e-07,0.0,1759202875596326189
4.4535636991746604e-07,0.0,1759202875614609630
6.136798236098254e-07,0.0,1759202875636591762
2.626431503442108e-07,0.0,1759202875654436398
1.234784404225483e-07,0.0,1759202875675857668
5.592425968253311e-07,0.0,1759202875695528708
1.5537463573010023e-07,0.0,1759202875716091355
5.270616060239722e-07,0.0,1759202875735839064
8.426082097811505e-08,0.0,1759202875755150106
-8.785950516502242e-09,0.0,1759202875774443201
2.739656621508623e-07,0.0,1759202875796277870
2.4140312910434234e-09,0.0,1759202875814410296
2.0013902146065035e-05,0.0,1759202875835941451
-5.896345832253201e-07,0.0,1759202875855553868
-1.9538296124904245e-06,0.0,1759202875874392568
7.349843703373059e-06,0.0,1759202875896295995
1.5656321528702447e-06,0.0,1759202875914529717
6.118642084921646e-06,0.0,1759202875936874836
1.1731919529992419e-09,0.0,1759202875954558531
-6.404178138952185e-06,0.0,1759202875975316235
-6.457330149374085e-06,0.0,1759202875996077531
-6.308748640910658e-06,0.0,1759202876015374711
-5.934506491189181e-06,0.0,1759202876035502483
-5.2017098367355035e-06,0.0,1759202876055380401
-4.6713017355016965e-06,0.0,1759202876075422948
-4.302873065074767e-06,0.0,1759202876096588376
-3.8212368989826215e-06,0.0,1759202876114351133
-3.4858788175889086e-06,0.0,1759202876136457434
-3.0844320887962936e-06,0.0,1759202876154664192
-2.7144450631164826e-06,0.0,1759202876176028600
-2.638425731323372e-06,0.0,1759202876195855963
-2.1992803201868657e-06,0.0,1759202876215609839
-2.1549684927922767e-06,0.0,1759202876236061717
-1.7528414179749307e-06,0.0,1759202876255084548
-1.555920032341238e-06,0.0,1759202876274912341
-1.4848293833776845e-06,0.0,1759202876296214164
-1.2678657104528034e-06,0.0,1759202876314751758
-1.1837687355816624e-06,0.0,1759202876337222503
-1.0286983505942664e-06,0.0,1759202876354788783
-8.817205081441835e-07,0.0,1759202876376003184
-5.14203753490731e-07,0.0,1759202876395516749
-6.553828299121131e-07,0.0,1759202876415740165
-3.392582038660145e-07,0.0,1759202876435380725
-5.363404835940609e-07,0.0,1759202876455541535
-5.354514443791161e-07,0.0,1759202876474611318
-4.468474210164739e-08,0.0,1759202876495748825
-4.6393661389000383e-07,0.0,1759202876515456066
1.241053373143499e-08,0.0,1759202876535964336
-4.2823460566453286e-07,0.0,1759202876555875905
-4.188444583484693e-07,0.0,1759202876575178989
-1.7232650207461246e-07,0.0,1759202876596551773
-2.6820384420175933e-07,0.0,1759202876614680260
-1.3100997615034769e-07,0.0,1759202876636390301
-2.3761568069915294e-07,0.0,1759202876654607881
-3.565678814607156e-07,0.0,1759202876675498135
1.3324532936085483e-07,0.0,1759202876695898458
-3.025502339684501e-07,0.0,1759202876715416774
1.5601112646980956e-07,0.0,1759202876735998705
-3.1346293690180354e-07,0.0,1759202876755178973
-3.147042490766731e-07,0.0,1759202876774909602
-8.026574288950834e-08,0.0,1759202876796370980
-1.8278344482262966e-07,0.0,1759202876814879989
-1.0644929494020131e-05,0.0,1759202876836665156
-4.748257582286944e-06,0.0,1759202876854293668
1.0900454259314488e-06,0.0,1759202876876046949
-1.9065688345481862e-05,0.0,1759202876895584199
3.11703146147621e-07,0.0,1759202876915448383
-1.775932001566084e-05,0.0,1759202876935846907
2.7388375824098997e-06,0.0,1759202876955381509
4.710262226965593e-06,0.0,1759202876974811591
5.589913821865636e-06,0.0,1759202876996468557
4.965044421718298e-06,0.0,1759202877014599438
4.770871351306496e-06,0.0,1759202877036374839
4.042233077157804e-06,0.0,1759202877054286181
3.5416161681451665e-06,0.0,1759202877076223272
3.6283209875855594e-06,0.0,1759202877095498948
2.9190215144786607e-06,0.0,1759202877115191414
3.292355119852208e-06,0.0,1759202877135502846
2.2996936773184183e-06,0.0,1759202877155589932
1.98398672761786e-06,0.0,1759202877174382434
3.4641814774612406e-06,0.0,1759202877195884152
1.579612828812096e-06,0.0,1759202877216152346
2.8087088135352693e-06,0.0,1759202877235873857
1.1354993012420436e-06,0.0,1759202877256021258
9.115658539801562e-07,0.0,1759202877274821821
1.4057287313258668e-06,0.0,1759202877296754536
9.168094568819183e-07,0.0,1759202877314559852
1.1436735671371498e-06,0.0,1759202877336562547
6.653909652729922e-07,0.0,1759202877354387818
1.860913144914798e-07,0.0,1759202877375850723
8.601495042690028e-07,0.0,1759202877395672120
1.0616538874922568e-07,0.0,1759202877415076280
-1.879439691886978e-05,0.0,1759202877436198928
1.6426081907360433e-07,0.0,1759202877455663078
1.4570062503019643e-06,0.0,1759202877474402417
-7.0025283850737785e-06,0.0,1759202877496312842
-1.630735929800301e-06,0.0,1759202877514477282
-5.854195916625321e-06,0.0,1759202877536527107
-3.696639468636656e-07,0.0,1759202877555060235
5.43225472666264e-06,0.0,1759202877575942110
7.041513812018066e-06,0.0,1759202877595825654
5.520131188986406e-06,0.0,1759202877615505057
6.550159868900187e-06,0.0,1759202877635809399
4.384502484643793e-06,0.0,1759202877655460848
3.762157965363194e-06,0.0,1759202877674846927
4.11573416339455e-06,0.0,1759202877696999536
3.051102517179728e-06,0.0,1759202877714283317
3.1407947498907517e-06,0.0,1759202877736860273
2.2808007955819657e-06,0.0,1759202877754845116
3.966624976162053e-06,0.0,1759202877776357359
1.96551553576957e-06,0.0,1759202877794337269
1.1347768421455264e-06,0.0,1759202877815811661
1.7533474551893198e-06,0.0,1759202877835540971
8.846248233713576e-07,0.0,1759202877856018112
6.327007759623035e-07,0.0,1759202877875249151
2.004021565800221e-06,0.0,1759202877895968507
4.265620252058761e-07,0.0,1759202877915646688
1.7712333213874978e-06,0.0,1759202877936396213
1.1194255481378683e-07,0.0,1759202877955411055
-8.20895858721468e-09,0.0,1759202877974627433
-9.884163311346462e-06,0.0,1759202877996340132
-4.520162986119495e-06,0.0,1759202878014640227
-8.49291106332102e-06,0.0,1759202878036751204
-2.7811019084981444e-06,0.0,1759202878054651838
3.200131581777115e-06,0.0,1759202878075504907
-1.4988683369696144e-05,0.0,1759202878095659928
3.0046518319724824e-06,0.0,1759202878115156284
-1.3178956373249815e-05,0.0,1759202878136690215
5.898393781820355e-06,0.0,1759202878155515842
6.567287276798131e-06,0.0,1759202878175330005
8.833126314036799e-06,0.0,1759202878197318564
7.414178547355427e-06,0.0,1759202878214262748
7.435067139642482e-06,0.0,1759202878237355543
5.979475803625415e-06,0.0,1759202878254589255
4.604861249123853e-06,0.0,1759202878276217065
6.768585625205553e-06,0.0,1759202878296120099
3.713509756184207e-06,0.0,1759202878315621952
5.765545444207457e-06,0.0,1759202878335907816
2.7089169946179216e-06,0.0,1759202878355621037
2.1343408677327777e-06,0.0,1759202878375087924
3.09742878444654e-06,0.0,1759202878396643458
1.7792796142335486e-06,0.0,1759202878414257753
2.240343449880784e-06,0.0,1759202878436500955
1.166067664158054e-06,0.0,1759202878454379972
7.184468694103835e-07,0.0,1759202878476281362
-9.85960025310443e-06,0.0,1759202878495453492
-1.3970567620105127e-06,0.0,1759202878515110290
-9.170505191958306e-06,0.0,1759202878536082875
-9.658111369757954e-08,0.0,1759202878555636033
1.6917985657812806e-06,0.0,1759202878575146894
5.5862831677194815e-06,0.0,1759202878595777744
2.3727971043206986e-06,0.0,1759202878615441156
3.239591684312342e-06,0.0,1759202878637116015
1.7138632201555851e-06,0.0,1759202878654498043
1.2941972402249321e-06,0.0,1759202878674695596
2.3662641263829108e-06,0.0,1759202878696544563
1.3974614114252498e-06,0.0,1759202878714427971
1.91906105600617e-06,0.0,1759202878736585571
9.552403278943493e-07,0.0,1759202878754316355
-1.2233388304060852e-08,0.0,1759202878776001074
3.555513867259034e-06,0.0,1759202878795543526
4.719958695172297e-08,0.0,1759202878815225469
2.3069398370365753e-05,0.0,1759202878836183367
-1.1043006975917466e-06,0.0,1759202878855136210
-2.590731451893857e-06,0.0,1759202878874353726
7.765693097037223e-06,0.0,1759202878896444856
1.2470402870762942e-06,0.0,1759202878914514588
6.448502248610068e-06,0.0,1759202878936826908
-4.364680211528851e-07,0.0,1759202878954305316
-7.33770194788155e-06,0.0,1759202878975879158
-4.773366964083872e-06,0.0,1759202878995685417
-7.079018997872928e-06,0.0,1759202879015372569
1.6346134935152975e-05,0.0,1759202879035613101
-4.514423869383155e-06,0.0,1759202879056131808
-6.664664122902994e-06,0.0,1759202879074314494
4.14452939328378e-06,0.0,1759202879096579186
-5.115921673518609e-06,0.0,1759202879114274901
7.921839727556014e-07,0.0,1759202879137036608
-7.061638898745175e-06,0.0,1759202879154629665
-9.285823179515641e-06,0.0,1759202879176271675
-8.369791503237688e-06,0.0,1759202879196405173
-8.388953362221668e-06,0.0,1759202879215548561
-7.074022881716693e-06,0.0,1759202879235900754
-6.957554708505033e-06,0.0,1759202879255329833
-6.3891792600747645e-06,0.0,1759202879274978627
-4.632854809858419e-06,0.0,1759202879295560989
-5.216134757823438e-06,0.0,1759202879315587199
-3.599936309591927e-06,0.0,1759202879335420738
-4.341407821840995e-06,0.0,1759202879355133200
-3.98812388898506e-06,0.0,1759202879375021070
-3.09443897268853e-06,0.0,1759202879396621029
-3.0655215523242357e-06,0.0,1759202879414537349
-2.5017288341583713e-06,0.0,1759202879437034488
-2.552959844682901e-06,0.0,1759202879454707396
-2.6538711606266978e-06,0.0,1759202879475169824
-1.3086587402639322e-06,0.0,1759202879495648469
-2.1519716660366785e-06,0.0,1759202879516055578
-8.838941157021707e-07,0.0,1759202879535946311
-1.8738661884955025e-06,0.0,1759202879555210751
-1.7671807852575131e-06,0.0,1759202879574356337
8.991734516551147e-06,0.0,1759202879597030048
2.7452063364664633e-06,0.0,1759202879614309836
7.5295132877435265e-06,0.0,1759202879636505671
1.3471188968274082e-06,0.0,1759202879654946668
-5.401510832737264e-06,0.0,1759202879675552533
1.6029064722313817e-05,0.0,1759202879695432570
-3.813277994582839e-06,0.0,1759202879715660035
1.63649040270288e-05,0.0,1759202879735469906
-4.60229470950365e-06,0.0,1759202879755500510
-6.569653186971295e-06,0.0,1759202879774731905
3.2413050520494006e-06,0.0,1759202879796748754
-5.096678647094372e-06,0.0,1759202879814480900
3.324923239881283e-07,0.0,1759202879836917107
-6.767297116539125e-06,0.0,1759202879854295449
-8.738595024452046e-06,0.0,1759202879876030456
2.5164664606601837e-06,0.0,1759202879896045298
-6.489415122115421e-06,0.0,1759202879915288163
2.9504216187417934e-06,0.0,1759202879935696244
-6.315498169066155e-06,0.0,1759202879955446233
-7.684633866738924e-06,0.0,1759202879974559054
-8.85158241107712e-06,0.0,1759202879995626925
-7.273385829344683e-06,0.0,1759202880015732551
-8.037976785430576e-06,0.0,1759202880035859539
-5.855426866453755e-06,0.0,1759202880055657867
-5.161573315232723e-06,0.0,1759202880074493061
-5.2698658164444075e-06,0.0,1759202880096733402
-4.370700301447554e-06,0.0,1759202880114412734
-4.267076239721685e-06,0.0,1759202880136643595
-3.4604458239909754e-06,0.0,1759202880154783840
-2.66772736679295e-06,0.0,1759202880175877171
-3.7979843763845157e-06,0.0,1759202880196193570
-2.1046201712608715e-06,0.0,1759202880215441872
-3.2103312338331587e-06,0.0,1759202880235619226
-1.5485607353082589e-06,0.0,1759202880255277644
-1.2920794307154053e-06,0.0,1759202880274442599
-2.084408133310735e-06,0.0,1759202880296814943
-1.3567640841110528e-06,0.0,1759202880314210808
-1.1774217515917182e-05,0.0,1759202880336801907
-5.095239490006269e-06,0.0,1759202880354244856
1.4891514538821112e-06,0.0,1759202880375872455
8.489255127761508e-07,0.0,1759202880395713577
2.254251079793179e-06,0.0,1759202880415596879
1.188833470632914e-06,0.0,1759202880435653461
2.0244198921241316e-06,0.0,1759202880455455594
1.9411786910030705e-06,0.0,1759202880474578540
1.340150039482353e-06,0.0,1759202880496785223
1.5632893655702569e-06,0.0,1759202880514666839
1.1834783380290627e-06,0.0,1759202880536782784
1.378652442867622e-06,0.0,1759202880554349311
1.3628855728858451e-06,0.0,1759202880575429305
1.8319435485312513e-05,0.0,1759202880596565668
8.505083093668001e-07,0.0,1759202880615779347
1.662371846506791e-05,0.0,1759202880636850064
-2.7636827469645285e-06,0.0,1759202880655445595
-4.581539354449985e-06,0.0,1759202880674329848
4.372519276883233e-06,0.0,1759202880696829376
-3.3931426919746746e-06,0.0,1759202880714809657
1.4171001998332483e-05,0.0,1759202880735995954
-6.408094068822026e-06,0.0,1759202880755518840
-7.230798025587603e-06,0.0,1759202880774394479
1.1134971624415482e-06,0.0,1759202880796641387
-3.6038584282303916e-06,0.0,1759202880814354884
9.234657634285061e-07,0.0,1759202880836331029
-3.6661449825190633e-06,0.0,1759202880855326320
-9.182192978684097e-06,0.0,1759202880875179214
8.372416665252279e-06,0.0,1759202880896458685
-8.980368655068416e-06,0.0,1759202880915492250
8.43775119038048e-06,0.0,1759202880935629802
-9.184290095753064e-06,0.0,1759202880955336876
-9.552311014476088e-06,0.0,1759202880974328981
-1.172471726775084e-05,0.0,1759202880996666608
-9.907464728703667e-06,0.0,1759202881014510891
-9.825358822285932e-06,0.0,1759202881036866703
-8.004486206543278e-06,0.0,1759202881054578427
-6.234732479997317e-06,0.0,1759202881075519655
-8.735482792347008e-06,0.0,1759202881095663126
-5.0715468159246455e-06,0.0,1759202881115458875
-2.787101118717501e-05,0.0,1759202881135905777
-5.177275465984409e-06,0.0,1759202881156359809
-1.935423082891463e-06,0.0,1759202881174408891
8.176332406347227e-06,0.0,1759202881196418270
9.161338214369413e-07,0.0,1759202881214379979
5.471183799719758e-06,0.0,1759202881236269212
-9.971258906596556e-07,0.0,1759202881254371223
-3.2476481445785267e-06,0.0,1759202881275688089
6.327198441344059e-06,0.0,1759202881295468871
-1.8569521612594553e-06,0.0,1759202881315123475
6.051708652069104e-06,0.0,1759202881335659413
-2.186214320758637e-06,0.0,1759202881356048259
-3.792989090877121e-06,0.0,1759202881374431971
1.2309097002315452e-05,0.0,1759202881395547183
-3.5358685793995403e-06,0.0,1759202881415737030
1.2444424291206417e-05,0.0,1759202881435693819
-4.181901498088313e-06,0.0,1759202881455753829
-4.980671510235142e-06,0.0,1759202881474547619
2.392183080473234e-06,0.0,1759202881496478353
-1.7876726826911493e-06,0.0,1759202881514550202
2.0958222802920187e-06,0.0,1759202881536483700
-2.2384872621360386e-06,0.0,1759202881554408615
-6.977149497741741e-06,0.0,1759202881575014136
-1.1448096830367088e-05,0.0,1759202881595671192
-6.6472519278110735e-06,0.0,1759202881615530702
-1.0457197925676853e-05,0.0,1759202881636020180
-4.903602228467207e-06,0.0,1759202881655691056
-4.0662631090083435e-06,0.0,1759202881674542372
-5.643713580824865e-06,0.0,1759202881696571835
-3.926611271856254e-06,0.0,1759202881714513709
-4.604474169297221e-06,0.0,1759202881736386964
-2.9315179231444696e-06,0.0,1759202881754321126
-1.265344706046215e-06,0.0,1759202881775901804
1.5204550530781744e-05,0.0,1759202881796018177
-3.2561185610178596e-07,0.0,1759202881815194577
1.4573428658441116e-05,0.0,1759202881835343040
-1.6637893765130678e-06,0.0,1759202881855303677
-3.307104845265892e-06,0.0,1759202881874969600
4.233367724965762e-06,0.0,1759202881896433536
-1.8563542228004477e-06,0.0,1759202881915532387
2.388585481581736e-06,0.0,1759202881936318868
-3.0861244327837567e-06,0.0,1759202881954245038
-4.788753131832014e-06,0.0,1759202881976234059
-7.985941733451517e-06,0.0,1759202881995624430
-5.1339780635681194e-06,0.0,1759202882015693143
-7.222818944713297e-06,0.0,1759202882035677084
-4.002694784063205e-06,0.0,1759202882055400407
-3.0562128345771846e-06,0.0,1759202882074883751
-7.631813431090658e-06,0.0,1759202882096538456
-1.964079915353569e-06,0.0,1759202882115687967
-6.645381523696599e-06,0.0,1759202882136054405
-9.257907199399105e-07,0.0,1759202882155604467
-4.477779072671585e-07,0.0,1759202882174463293
7.474602868013658e-06,0.0,1759202882196647554
3.35606718375911e-06,0.0,1759202882215038474
1.1577600381115042e-05,0.0,1759202882237076541
1.133214492658104e-06,0.0,1759202882255224420
-3.988607221971707e-06,0.0,1759202882276073997
1.3818335590688431e-05,0.0,1759202882296360206
-4.187578336930665e-06,0.0,1759202882315132197
9.290846525309903e-06,0.0,1759202882335824839
-5.815985149675051e-06,0.0,1759202882355435576
-6.308608408736878e-06,0.0,1759202882374592219
-1.1364495241429448e-07,0.0,1759202882397139464
-3.5301156781256825e-06,0.0,1759202882414810230
-2.6568558334002418e-08,0.0,1759202882436637770
-3.468422699258703e-06,0.0,1759202882454980815
-7.192459200969448e-06,0.0,1759202882476303206
7.185590768468148e-06,0.0,1759202882495623713
-4.997867466465801e-06,0.0,1759202882516018551
9.078798134458403e-06,0.0,1759202882535508055
-4.619747670879831e-06,0.0,1759202882555701676
-5.77776598942157e-06,0.0,1759202882574761141
-9.414130540217055e-06,0.0,1759202882596406126
-6.043696733302303e-06,0.0,1759202882614382141
-1.57352554569993e-05,0.0,1759202882636427912
-5.4197569366251415e-06,0.0,1759202882654317881
-1.4619171587630332e-06,0.0,1759202882675881847
-1.6044036796905418e-05,0.0,1759202882695548355
-2.7788807013820423e-06,0.0,1759202882715697436
-2.501066637760897e-05,0.0,1759202882736233046
4.6019054245114335e-07,0.0,1759202882756035740
3.33166235387769e-06,0.0,1759202882775333816
-4.070055748583041e-06,0.0,1759202882795501311
3.979146560155353e-06,0.0,1759202882815124138
-2.023676036726238e-06,0.0,1759202882836065880
4.571998869231306e-06,0.0,1759202882855273468
4.566454442143993e-06,0.0,1759202882875287526
1.5238866761615782e-06,0.0,1759202882896551284
2.8511684078339897e-06,0.0,1759202882914390406
1.1989198710138404e-06,0.0,1759202882936210098
2.572841460061222e-06,0.0,1759202882954724607
4.079327135909899e-06,0.0,1759202882976359635
-1.310744992788784e-06,0.0,1759202882996190810
3.449013978935115e-06,0.0,1759202883015416781
-1.3132591537565797e-06,0.0,1759202883036567593
3.770192682630877e-06,0.0,1759202883055331617
3.753991836127832e-06,0.0,1759202883074378751
1.4146275404618485e-06,0.0,1759202883097197941
2.505203629198812e-06,0.0,1759202883114404115
1.1734896458087148e-06,0.0,1759202883136700154
2.319629133494748e-06,0.0,1759202883154409196
3.4904562464965796e-06,0.0,1759202883176210724
-1.6869070252855876e-06,0.0,1759202883195341732
2.629258768590908e-06,0.0,1759202883215225032
-1.7747739992821578e-06,0.0,1759202883236230577
2.8983728491274786e-06,0.0,1759202883255356578
3.1483934215411104e-06,0.0,1759202883274515723
8.086239908541613e-07,0.0,1759202883296621106
2.492756176796434e-06,0.0,1759202883314343578
1.1561414555301164e-06,0.0,1759202883336907646
2.542592764211044e-06,0.0,1759202883355009743
2.9014080948370695e-06,0.0,1759202883375698139
3.06214436494818e-07,0.0,1759202883395645967
2.1239545458927567e-06,0.0,1759202883415743509
-8.638759546688724e-08,0.0,1759202883435586276
1.8780408451968175e-06,0.0,1759202883455515994
2.126612349729824e-06,0.0,1759202883474816742
4.565247695568769e-07,0.0,1759202883496724888
1.6505459421441272e-06,0.0,1759202883514808136
-2.242664244410935e-06,0.0,1759202883535637388
1.8986921715650589e-06,0.0,1759202883555333406
1.999279949825327e-06,0.0,1759202883575251060
6.729496195658841e-08,0.0,1759202883596464985
1.0537569904407716e-06,0.0,1759202883614325893
4.9033680714550607e-08,0.0,1759202883636607424
1.0744903719561208e-06,0.0,1759202883654554331
2.166201632061114e-06,0.0,1759202883675761394
-1.8325348322860299e-06,0.0,1759202883696055689
1.9350769695219172e-06,0.0,1759202883715174150
-1.7027512152889085e-06,0.0,1759202883736066140
2.185040220820143e-06,0.0,1759202883755325875
2.2408917931910472e-06,0.0,1759202883774565126
4.775272704800658e-07,0.0,1759202883797127244
1.351473544331197e-06,0.0,1759202883814878238
3.7211088849784267e-07,0.0,1759202883836844028
1.323213235009304e-06,0.0,1759202883854347675
2.295437067126526e-06,0.0,1759202883875651453
-1.5207750878187097e-06,0.0,1759202883895555095
1.8525983802432904e-06,0.0,1759202883915276810
-1.656732282488094e-06,0.0,1759202883935330097
1.7876288478249196e-06,0.0,1759202883955630606
2.0320688515490702e-06,0.0,1759202883974373574
-1.401990934391844e-07,0.0,1759202883996453851
1.531972405098373e-06,0.0,1759202884014235460
3.390984119485525e-07,0.0,1759202884036577231
1.7405208043446797e-06,0.0,1759202884054516691
2.124956140629797e-06,0.0,1759202884076042299
-1.6641009635169536e-06,0.0,1759202884096845615
1.9992438717670043e-06,0.0,1759202884115377880
-1.1414978703668118e-05,0.0,1759202884135737659
-2.6867646368429116e-08,0.0,1759202884156033654
2.4223536538177262e-06,0.0,1759202884174360212
-7.370677268607787e-08,0.0,1759202884196039622
3.3033570313411824e-06,0.0,1759202884215215351
-1.994086662831072e-05,0.0,1759202884235814108
2.526150842375709e-06,0.0,1759202884255484553
3.8311562123061955e-06,0.0,1759202884274664370
-6.5156919762373715e-06,0.0,1759202884296362587
-3.6874666771640135e-07,0.0,1759202884314640129
-5.5617164101297016e-06,0.0,1759202884336697214
9.027342770719889e-07,0.0,1759202884354665312
7.691790097044445e-06,0.0,1759202884375755138
2.6490260975542326e-05,0.0,1759202884395897610
8.056337826287976e-06,0.0,1759202884415314554
2.4593446627769317e-05,0.0,1759202884435785620
4.5979720230393935e-06,0.0,1759202884455703264
2.7803294612939187e-06,0.0,1759202884474596211
1.006900594100409e-05,0.0,1759202884497113130
4.499239762988101e-06,0.0,1759202884514696048
8.185595955536763e-06,0.0,1759202884536912195
2.535677209765157e-06,0.0,1759202884554466917
-3.0971659236009452e-06,0.0,1759202884576041953
-6.170375179404482e-06,0.0,1759202884595501356
-3.769992354184512e-06,0.0,1759202884615656683
-6.0617443588464384e-06,0.0,1759202884635704368
-2.9367331320259943e-06,0.0,1759202884655694555
-2.3228749410031208e-06,0.0,1759202884674619426
-3.316220821906667e-06,0.0,1759202884696656014
-1.920067018261556e-06,0.0,1759202884714362793
-2.401815318888907e-06,0.0,1759202884736217928
-1.256530253138628e-06,0.0,1759202884754271786
-7.761897592204888e-07,0.0,1759202884775784494
-2.48917108556034e-06,0.0,1759202884796302030
-7.543234907108142e-07,0.0,1759202884815882381
-2.2891596431295895e-06,0.0,1759202884835353753
-5.165883978876723e-07,0.0,1759202884855242575
-1.1783604655057343e-07,0.0,1759202884874328298
-3.071295885275963e-06,0.0,1759202884896387678
3.088166017792685e-07,0.0,1759202884915326957
-2.263641905728159e-05,0.0,1759202884935953855
4.6017193714325996e-07,0.0,1759202884955447909
2.0067459474013116e-06,0.0,1759202884974428992
2.627545262472275e-06,0.0,1759202884996620709
3.0026339924825863e-06,0.0,1759202885014806420
2.4108031646339105e-06,0.0,1759202885036465753
2.705312908537538e-06,0.0,1759202885054499355
3.0563257688082055e-06,0.0,1759202885075649179
8.094483576863599e-07,0.0,1759202885095504423
2.4627624989423983e-06,0.0,1759202885115393434
5.019243131825026e-07,0.0,1759202885136438632
2.331661212131431e-06,0.0,1759202885155575442
2.238521457140216e-06,0.0,1759202885174572690
1.2289843183976403e-06,0.0,1759202885196526348
1.5673340358377136e-06,0.0,1759202885214269896
9.86282027535506e-07,0.0,1759202885236246784
1.365353813712478e-06,0.0,1759202885254316947
1.771972834529534e-06,0.0,1759202885276034321
-1.685214651080363e-07,0.0,1759202885296211510
1.4244687267096954e-06,0.0,1759202885316285377
-3.208889726447659e-07,0.0,1759202885337345215
1.4601296446649043e-06,0.0,1759202885355928661
1.5221151104610974e-06,0.0,1759202885375401660
2.1429974609338193e-07,0.0,1759202885397768226
1.2177655181115734e-06,0.0,1759202885414985480
4.83010512263601e-07,0.0,1759202885437751458
1.3175804335466464e-06,0.0,1759202885455174744
1.5415411306318018e-06,0.0,1759202885475405596
8.646164278604247e-08,0.0,1759202885495383429
1.1245254461384642e-06,0.0,1759202885515555219
-9.233836159719558e-08,0.0,1759202885535980627
1.0180055695816624e-06,0.0,1759202885555909808
1.169905534652448e-06,0.0,1759202885575107976
-3.754510216320504e-07,0.0,1759202885595787578
1.0918050888972615e-06,0.0,1759202885615151351
-3.62995894680781e-07,0.0,1759202885636360539
1.124916422290825e-06,0.0,1759202885655910384
1.1226530584828692e-06,0.0,1759202885675250961
3.805890608474869e-07,0.0,1759202885696669480
7.005397795426714e-07,0.0,1759202885714770563
-1.0094997747379168e-05,0.0,1759202885736921627
-3.7460694070607095e-06,0.0,1759202885754592891
2.6247211869681633e-06,0.0,1759202885776054220
1.7413857434483392e-06,0.0,1759202885795819488
3.1825575947118227e-06,0.0,1759202885815205137
1.9351875696586035e-06,0.0,1759202885835644687
2.8203499305244586e-06,0.0,1759202885855089194
2.6172784518728977e-06,0.0,1759202885874721916
1.9229809522518885e-06,0.0,1759202885896540399
1.9759603301540674e-06,0.0,1759202885914871626
1.5457064665179384e-06,0.0,1759202885936514343
1.6530127638791701e-06,0.0,1759202885954524084
1.792371236883691e-06,0.0,1759202885975855762
6.418123757801576e-07,0.0,1759202885995715592
1.4611726914731645e-06,0.0,1759202886015193069
4.2957322785306484e-07,0.0,1759202886035710151
1.3021279192669921e-06,0.0,1759202886055303826
1.2849860919433031e-06,0.0,1759202886074538360
7.427604065285373e-07,0.0,1759202886096896504
1.03641733031511e-06,0.0,1759202886114521450
7.046737942875201e-07,0.0,1759202886136720532
9.442370683538916e-07,0.0,1759202886154843837
9.184326878225998e-07,0.0,1759202886174560657
-9.964368317127568e-06,0.0,1759202886196821445
4.109954588194563e-07,0.0,1759202886215665701
-1.734246546279336e-05,0.0,1759202886236096765
2.6914922025559093e-06,0.0,1759202886255599455
4.67178478902833e-06,0.0,1759202886274678901
-2.0517710321586246e-05,0.0,1759202886295641889
4.865994860885091e-06,0.0,1759202886315249607
-1.4307544998599185e-05,0.0,1759202886336375702
8.303243735328666e-06,0.0,1759202886355471498
9.018113071987877e-06,0.0,1759202886375195673
1.0269203947300743e-05,0.0,1759202886396570619
9.286146484178529e-06,0.0,1759202886414815329
8.41014180502373e-06,0.0,1759202886435705444
7.754353788383201e-06,0.0,1759202886455576954
6.837988555790472e-06,0.0,1759202886476036578
6.664331737806803e-06,0.0,1759202886495965241
5.529601456691207e-06,0.0,1759202886515171877
5.452033103450814e-06,0.0,1759202886535657387
4.414117982255378e-06,0.0,1759202886555202323
3.935948857098446e-06,0.0,1759202886574615151
3.753743337329407e-06,0.0,1759202886597105452
3.251018649007947e-06,0.0,1759202886614635786
3.0456306067169536e-06,0.0,1759202886636350400
2.611163157096981e-06,0.0,1759202886654756590
2.1949328437474123e-06,0.0,1759202886675765536
2.4814055175647466e-06,0.0,1759202886695575983
1.7839211958347701e-06,0.0,1759202886715406691
2.0711432235680827e-06,0.0,1759202886735888918
1.380724230116953e-06,0.0,1759202886755404454
1.1844152784237248e-06,0.0,1759202886774910161
1.292184802151456e-06,0.0,1759202886796974025
9.612471085814832e-07,0.0,1759202886814281141
9.912421018723527e-07,0.0,1759202886836343850
7.23908538877524e-07,0.0,1759202886854493021
5.841466452129274e-07,0.0,1759202886875765888
7.908699672957895e-07,0.0,1759202886895673609
5.026994603097214e-07,0.0,1759202886916080022
6.859096263320985e-07,0.0,1759202886935749805
3.893513742281126e-07,0.0,1759202886955501071
2.990132978859226e-07,0.0,1759202886974440092
7.311589896365159e-07,0.0,1759202886995574232
2.149590596793807e-07,0.0,1759202887015217408
6.420785287213679e-07,0.0,1759202887035867143
1.058802349485076e-07,0.0,1759202887055322094
6.108488004525592e-08,0.0,1759202887075191159
2.6348854258785526e-07,0.0,1759202887096907530
1.1442612312936858e-07,0.0,1759202887114392326
2.135894009995289e-07,0.0,1759202887136897078
6.520314057198368e-08,0.0,1759202887154786802
-9.064880100200657e-08,0.0,1759202887175651726
3.945732761342194e-07,0.0,1759202887195780219
-8.274561075314308e-08,0.0,1759202887215266193
3.650389028870328e-07,0.0,1759202887235963688
-1.417187223668117e-07,0.0,1759202887255150322
-1.617720334779802e-07,0.0,1759202887274778026
5.372796672582984e-08,0.0,1759202887297025885
-7.320737388921857e-08,0.0,1759202887314320751
4.609656252777864e-08,0.0,1759202887336274438
-8.075922384809987e-08,0.0,1759202887354498492
-2.172264104125103e-07,0.0,1759202887375709176
2.7412850626405354e-07,0.0,1759202887395736433
-1.8474393858048194e-07,0.0,1759202887415180799
2.734816830097962e-07,0.0,1759202887435521222
-1.9942242283105994e-07,0.0,1759202887455372380
-2.3555929925051912e-07,0.0,1759202887474321867
-5.218134287194935e-09,0.0,1759202887497094331
-1.9160518045564927e-07,0.0,1759202887514686506
-5.32607833432662e-08,0.0,1759202887536585486
-2.0715486787764072e-07,0.0,1759202887554683054
-2.4903617687591826e-07,0.0,1759202887576131593
2.762478973622652e-08,0.0,1759202887595776913
-1.769935425717782e-07,0.0,1759202887615649470
4.929671766186816e-08,0.0,1759202887636413799
-1.7449477071487496e-07,0.0,1759202887655833480
-2.0539184445729314e-07,0.0,1759202887674772403
2.3766627014150422e-07,0.0,1759202887696541538
-2.271404319862448e-07,0.0,1759202887715056950
2.1713814030380787e-07,0.0,1759202887735737393
-2.488106887969938e-07,0.0,1759202887755270553
-2.5738285928539657e-07,0.0,1759202887774418023
-3.981070367692546e-08,0.0,1759202887796678752
-1.4895470301051965e-07,0.0,1759202887814497958
-2.947008544867853e-08,0.0,1759202887836943484
-1.448709466367495e-07,0.0,1759202887855053695
-2.681694049773492e-07,0.0,1759202887876321345
2.3050807989434163e-07,0.0,1759202887895841336
-1.9185796767605104e-07,0.0,1759202887915677852
2.5456286705196944e-07,0.0,1759202887935738719
-2.071313473096768e-07,0.0,1759202887955245328
-2.1888449919346595e-07,0.0,1759202887974673118
1.0501572100309512e-05,0.0,1759202887997218300
4.165890071892447e-06,0.0,1759202888014695717
8.914846041885663e-06,0.0,1759202888036511007
2.5132963191793923e-06,0.0,1759202888054632752
-4.300715700200692e-06,0.0,1759202888075404025
1.639702468558715e-05,0.0,1759202888095911311
-3.827667229220772e-06,0.0,1759202888115850469
1.5980169389171895e-05,0.0,1759202888135964966
-5.6087607030021505e-06,0.0,1759202888155355660
-7.439561620879016e-06,0.0,1759202888174786807
-8.160578921150022e-06,0.0,1759202888196245330
-7.259573803996338e-06,0.0,1759202888214825997
-6.86887777873456e-06,0.0,1759202888236282821
-5.909644844259866e-06,0.0,1759202888254708667
-5.207854828291298e-06,0.0,1759202888275892396
-5.156742479309024e-06,0.0,1759202888295703921
-4.266734076495675e-06,0.0,1759202888315590954
-4.240635329157763e-06,0.0,1759202888335369829
-3.4341132936534716e-06,0.0,1759202888355770111
-3.001691818805073e-06,0.0,1759202888374733600
-3.4688565347016144e-06,0.0,1759202888396189459
-2.357366986611935e-06,0.0,1759202888415293374
-2.8674679073108567e-06,0.0,1759202888435987003
-1.7962466479028255e-06,0.0,1759202888455475037
-1.5587910149972579e-06,0.0,1759202888474940212
-1.7381928619596976e-06,0.0,1759202888496805975
-1.3685926747064753e-06,0.0,1759202888514640168
-1.4092229924827708e-06,0.0,1759202888536654374
-1.0631874396838424e-06,0.0,1759202888554412114
-7.210256861157953e-07,0.0,1759202888575597509
-1.3885970328856805e-06,0.0,1759202888595673567
-5.835967907904619e-07,0.0,1759202888615675496
-1.207364251842671e-06,0.0,1759202888636173291
-3.621821298274438e-07,0.0,1759202888655257801
-2.729867403962625e-07,0.0,1759202888674613987
-5.499315633805605e-07,0.0,1759202888696439573
-2.0962473760279812e-07,0.0,1759202888714386096
-4.217206462640273e-07,0.0,1759202888737422001
-1.9777663331397733e-07,0.0,1759202888754666967
3.869729079295655e-08,0.0,1759202888775522132
-5.8636515417683e-07,0.0,1759202888795399404
2.309169420659354e-08,0.0,1759202888815561211
-6.020497169206946e-07,0.0,1759202888835768538
7.155871105274159e-08,0.0,1759202888855841971
1.4467880904548823e-07,0.0,1759202888874274344
-1.546195854701683e-07,0.0,1759202888896956611
1.19006424020356e-07,0.0,1759202888914464155
-5.1029943052225874e-08,0.0,1759202888936580222
1.7312274938801258e-07,0.0,1759202888954328182
2.4234163369272083e-07,0.0,1759202888975410892
-9.493956441140473e-08,0.0,1759202888996243845
1.8974600462559238e-07,0.0,1759202889015354775
-3.145830687924473e-07,0.0,1759202889036717557
2.527824052010513e-07,0.0,1759202889055519727
2.9289253452797343e-07,0.0,1759202889074305287
-2.4779451736838797e-05,0.0,1759202889095811592
1.1121799272560359e-06,0.0,1759202889115140643
-1.790258268722181e-05,0.0,1759202889136518508
5.488734471160752e-06,0.0,1759202889155534567
6.521757746488688e-06,0.0,1759202889174701289
7.818501694605464e-06,0.0,1759202889196714583
7.181562810871403e-06,0.0,1759202889214369831
6.682540674412356e-06,0.0,1759202889236793347
5.9991188305579726e-06,0.0,1759202889254642058
5.381698381470293e-06,0.0,1759202889275952394
4.973913393247776e-06,0.0,1759202889295962072
4.3598268708876825e-06,0.0,1759202889315256879
4.0466706277643956e-06,0.0,1759202889335705213
3.5181377913915467e-06,0.0,1759202889355624439
3.1567256100585496e-06,0.0,1759202889374545732
2.9005313474042426e-06,0.0,1759202889396198066
2.5783091577408265e-06,0.0,1759202889414904066
2.3538103844408355e-06,0.0,1759202889436668115
2.0821182532080774e-06,0.0,1759202889454635519
1.8324753306185931e-06,0.0,1759202889476042565
1.7933804645188737e-06,0.0,1759202889495769615
1.4862903565171973e-06,0.0,1759202889515514121
1.473944444004178e-06,0.0,1759202889535664284
1.1899209149026535e-06,0.0,1759202889555511159
1.0539243668914974e-06,0.0,1759202889574745821
1.0169298293651147e-06,0.0,1759202889596672910
8.570780877592224e-07,0.0,1759202889614623791
9.090067595930256e-06,0.0,1759202889636649379
1.8087744578078504e-06,0.0,1759202889654283223
-9.086854969782629e-07,0.0,1759202889675078912
9.585900694063685e-06,0.0,1759202889695952347
-9.6075002255402e-08,0.0,1759202889715957979
9.405730715309276e-06,0.0,1759202889735569818
-7.50747289042473e-07,0.0,1759202889755422555
-2.6987435597967935e-06,0.0,1759202889775000659
-3.706068327521325e-06,0.0,1759202889795842954
-3.266845636282278e-06,0.0,1759202889815075096
-3.755229720843655e-06,0.0,1759202889835479105
-2.6732799386933377e-06,0.0,1759202889855469902
-2.351995128043325e-06,0.0,1759202889874918440
-2.47117682056413e-06,0.0,1759202889896207052
-2.030056731294036e-06,0.0,1759202889914420393
-2.0093010458718877e-06,0.0,1759202889936364587
-1.6098328081080535e-06,0.0,1759202889954933748
-1.2001574131743198e-06,0.0,1759202889975356102
-1.8242770508708507e-06,0.0,1759202889995666106
-9.707708335576525e-07,0.0,1759202890015856174
-1.5836413612252061e-06,0.0,1759202890035911897
-7.018023665093517e-07,0.0,1759202890055447495
-5.777831898690935e-07,0.0,1759202890074963792
-8.268035048659653e-07,0.0,1759202890096809580
-5.64310366933775e-07,0.0,1759202890114680807
-6.712870415367039e-07,0.0,1759202890136727815
-4.1722163575234846e-07,0.0,1759202890154819959
-1.5833603111287238e-07,0.0,1759202890175884412
-8.318900275056278e-07,0.0,1759202890195897207
-1.134968421188791e-07,0.0,1759202890215506603
-7.390795979405285e-07,0.0,1759202890235476797
-3.2476432371422635e-08,0.0,1759202890255694527
5.2403193737927475e-08,0.0,1759202890274565993
-2.534987789643378e-07,0.0,1759202890296465084
2.5715856763096982e-08,0.0,1759202890314644145
-1.4166782579120728e-07,0.0,1759202890336300677
8.993939823582526e-08,0.0,1759202890354750804
1.6872719916868365e-07,0.0,1759202890375799786
1.1179590701863607e-05,0.0,1759202890396196695
1.4482908343454325e-06,0.0,1759202890415336483
1.0354549188884257e-05,0.0,1759202890435661426
3.779282916708353e-07,0.0,1759202890455672853
-1.670734426378135e-06,0.0,1759202890474876722
1.6958729067901068e-05,0.0,1759202890495540951
-1.955417443654836e-06,0.0,1759202890515309359
1.5477944289193826e-05,0.0,1759202890536157280
-4.394996379685817e-06,0.0,1759202890555602014
-5.336332262833151e-06,0.0,1759202890574848103
3.155468586255017e-06,0.0,1759202890596420048
-1.613048408245304e-06,0.0,1759202890614942436
2.772238752882558e-06,0.0,1759202890637021013
-2.3510742687287186e-06,0.0,1759202890654814581
-7.928045610260739e-06,0.0,1759202890675100631
9.897449510936266e-06,0.0,1759202890696078451
-7.540395357180434e-06,0.0,1759202890715537874
9.655681586640204e-06,0.0,1759202890735920271
-8.5403651510265e-06,0.0,1759202890755270570
-8.972402274708031e-06,0.0,1759202890774527559
-1.1174145220697816e-05,0.0,1759202890796563938
-9.481210665044712e-06,0.0,1759202890814931750
-9.423327413339697e-06,0.0,1759202890836669413
-7.703562938496994e-06,0.0,1759202890854551336
-6.039078813310778e-06,0.0,1759202890875863006
-8.389011399274047e-06,0.0,1759202890895681144
-4.892587002067215e-06,0.0,1759202890915359636
-7.102439596663477e-06,0.0,1759202890935824319
-3.6005644363788847e-06,0.0,1759202890955468583
-2.8959843673195974e-06,0.0,1759202890974507603
-3.900923923306142e-06,0.0,1759202890996509287
-2.4304630641682933e-06,0.0,1759202891015003745
-2.8915440279944484e-06,0.0,1759202891037037412
-1.6197278215124276e-06,0.0,1759202891054580428
-1.2533062914065176e-06,0.0,1759202891074897119
-3.228729441729198e-06,0.0,1759202891096530343
-6.563646030954121e-07,0.0,1759202891115949732
-1.901436262178825e-06,0.0,1759202891135269075
-4.716883958708816e-07,0.0,1759202891155519772
-1.3857091287236302e-07,0.0,1759202891174390997
1.7218829527411222e-05,0.0,1759202891196287138
-9.723657361533956e-07,0.0,1759202891215285668
1.5125570718895954e-05,0.0,1759202891236241367
-3.425252665732185e-06,0.0,1759202891255774519
-4.394127977095948e-06,0.0,1759202891274418837
3.0929482185518054e-06,0.0,1759202891297239933
-1.6461527212914995e-06,0.0,1759202891314386246
2.496366043168579e-06,0.0,1759202891336211802
-2.1363379142967943e-06,0.0,1759202891354538812
-6.9488736957543096e-06,0.0,1759202891376332631
1.0945520966957363e-05,0.0,1759202891395699747
-5.379287049035614e-06,0.0,1759202891415044401
1.0040513274907107e-05,0.0,1759202891436100985
-7.11277400539493e-06,0.0,1759202891455336325
-8.34964226490305e-06,0.0,1759202891474429169
-8.331907341618164e-06,0.0,1759202891495288681
-2.052449552863646e-06,0.0,1759202891515698575
3.5548321552670776e-07,0.0,1759202891537311923
-3.255779182946651e-06,0.0,1759202891554868227
-7.105349726401402e-06,0.0,1759202891575275920
-1.1491953760787012e-05,0.0,1759202891595634004
-6.677307130433672e-06,0.0,1759202891615425190
-1.0537142317810393e-05,0.0,1759202891635543507
-4.9862507622140045e-06,0.0,1759202891655143236
-3.950200492767364e-06,0.0,1759202891674854613
-5.665039398435874e-06,0.0,1759202891696933886
-3.2749937114199163e-06,0.0,1759202891714781251
-4.097137883275382e-06,0.0,1759202891736889088
-2.0658499192710363e-06,0.0,1759202891754344856
-1.253947923572936e-06,0.0,1759202891776214603
-3.527718813379929e-06,0.0,1759202891796039963
-1.2127219453950919e-06,0.0,1759202891815700164
-3.1846486713283176e-06,0.0,1759202891835464286
-8.062468862870578e-07,0.0,1759202891855089834
-2.7060130244900916e-07,0.0,1759202891874381350
-4.239792242351689e-06,0.0,1759202891895844629
7.097497217086951e-09,0.0,1759202891915920531
-4.0543924178776596e-06,0.0,1759202891935817105
4.326168885707818e-07,0.0,1759202891955521056
7.024608059495078e-07,0.0,1759202891974447153
-2.1951938414564433e-05,0.0,1759202891996431354
-9.158702331714666e-06,0.0,1759202892014591424
-1.8782065483523417e-05,0.0,1759202892036666571
-5.269527591620599e-06,0.0,1759202892054866014
8.649454990709076e-06,0.0,1759202892075781986
-3.5943365422326484e-05,0.0,1759202892095549505
6.83413811805702e-06,0.0,1759202892115128549
-3.242162261431877e-05,0.0,1759202892136709249
1.3796141351758946e-05,0.0,1759202892155778365
1.566542022384903e-05,0.0,1759202892174503946
6.9587415064411665e-06,0.0,1759202892197389308
1.5366020831489963e-05,0.0,1759202892214683010
6.29593218378492e-06,0.0,1759202892236278922
1.0908120076251057e-05,0.0,1759202892254600181
1.631159551989818e-05,0.0,1759202892275964809
-4.397447435242964e-06,0.0,1759202892296028215
1.3566335624146681e-05,0.0,1759202892315516251
-7.479381878429016e-06,0.0,1759202892335424738
1.2276634565199461e-05,0.0,1759202892355553514
1.3454382653890503e-05,0.0,1759202892374957831
2.9926748320941574e-06,0.0,1759202892397007274
1.0875765926336591e-05,0.0,1759202892414332038
4.7863298872634145e-06,0.0,1759202892436587183
1.1251781276736105e-05,0.0,1759202892454344931
1.1570955616307539e-05,0.0,1759202892474783877
-4.279770508287381e-06,0.0,1759202892496898789
1.2622832633210218e-05,0.0,1759202892515758445
2.2846512529998827e-06,0.0,1759202892535856354
1.1385617119968202e-05,0.0,1759202892555191689
1.2258282062467353e-05,0.0,1759202892574467679
-6.713841122025105e-06,0.0,1759202892596464594
1.2610375677028527e-05,0.0,1759202892615127397
-5.906625886876317e-06,0.0,1759202892635714045
1.2514051507865968e-05,0.0,1759202892655602782
1.263079642320402e-05,0.0,1759202892674782723
3.594113591077904e-06,0.0,1759202892696643997
7.818362741259456e-06,0.0,1759202892714420713
2.9250583346239634e-06,0.0,1759202892736687769
7.4331601845665895e-06,0.0,1759202892754326727
1.2247923198290945e-05,0.0,1759202892775275306
-6.309463737548702e-06,0.0,1759202892795695056
1.0139153543146432e-05,0.0,1759202892815404000
-7.288557522516482e-06,0.0,1759202892835556065
1.0306988140552726e-05,0.0,1759202892855095098
1.0540575525291101e-05,0.0,1759202892874282860
2.3201108569991012e-06,0.0,1759202892896615171
6.3063126692746735e-06,0.0,1759202892914484255
1.8140746493869017e-06,0.0,1759202892936743348
6.150816865711704e-06,0.0,1759202892954328897
1.0621108578808622e-05,0.0,1759202892975679040
-6.806327436688241e-06,0.0,1759202892995849021
8.756712963115885e-06,0.0,1759202893015479347
-7.28096471304387e-06,0.0,1759202893035931086
8.9505208697836e-06,0.0,1759202893055694068
1.0015451153584727e-05,0.0,1759202893074689299
1.6355012759466774e-06,0.0,1759202893096266013
7.4306907130868255e-06,0.0,1759202893115032977
2.553334526013963e-06,0.0,1759202893136258901
7.49860943703106e-06,0.0,1759202893155086817
7.954211925695653e-06,0.0,1759202893174385443
6.414719588439597e-07,0.0,1759202893196184406
7.630519814956737e-06,0.0,1759202893215065643
1.5140581445316354e-09,0.0,1759202893235749717
7.009835874213096e-06,0.0,1759202893255711101
7.911197818510337e-06,0.0,1759202893274589991
-6.82211169547386e-06,0.0,1759202893295847440
7.435194347265382e-06,0.0,1759202893315372620
-7.221654341815805e-06,0.0,1759202893335479835
7.410052210059237e-06,0.0,1759202893355439227
7.752116807740807e-06,0.0,1759202893374477540
1.1218088671844281e-05,0.0,1759202893396940071
8.733544263169031e-06,0.0,1759202893414479769
9.39737378198641e-06,0.0,1759202893436572713
6.918146361764811e-06,0.0,1759202893454555353
4.421633898911178e-06,0.0,1759202893475552864
9.816781242857433e-06,0.0,1759202893495443218
3.7446587690334465e-06,0.0,1759202893515652645
8.618934168207305e-06,0.0,1759202893536434420
1.964424282491962e-06,0.0,1759202893555145187
1.3494278073872757e-06,0.0,1759202893574477056
3.5771216757129904e-06,0.0,1759202893596596517
9.365178534031124e-07,0.0,1759202893614262604
2.767345490741826e-06,0.0,1759202893636538685
1.1131092177043977e-06,0.0,1759202893654648979
-6.63747729780956e-07,0.0,1759202893676214877
4.394148181535903e-06,0.0,1759202893696145959
-7.463910172616105e-07,0.0,1759202893715190718
4.2891948645286014e-06,0.0,1759202893735723335
-1.157341162332319e-06,0.0,1759202893755657421
-1.6710290295455937e-06,0.0,1759202893774652082
1.3352143984009505e-06,0.0,1759202893797223276
-1.3238177038629871e-06,0.0,1759202893814507691
3.4523158812955487e-07,0.0,1759202893836881029
-1.8669899550553468e-06,0.0,1759202893854450184
-2.1264538839762736e-06,0.0,1759202893874878793
6.968760298903445e-07,0.0,1759202893896304320
-2.1492792182014135e-06,0.0,1759202893915201452
8.158475263557053e-07,0.0,1759202893935508753
-1.9784777163991277e-06,0.0,1759202893955705056
-2.418707122572067e-06,0.0,1759202893974437294
-1.6717883249244322e-05,0.0,1759202893996362729
-1.2991318027491286e-06,0.0,1759202894015385292
-1.54482695773078e-05,0.0,1759202894035823298
8.164893551405382e-07,0.0,1759202894055378196
1.8545973393946451e-06,0.0,1759202894074312394
-4.632754989120856e-06,0.0,1759202894096534806
-4.780134516228116e-07,0.0,1759202894114604509
-3.754640122011522e-06,0.0,1759202894137254059
6.204499185094273e-07,0.0,1759202894154695878
5.1904288172012145e-06,0.0,1759202894175315731
1.0925509153242089e-05,0.0,1759202894195711044
5.115532941617021e-06,0.0,1759202894215116413
3.007379064071153e-05,0.0,1759202894235865151
3.3685748658490582e-06,0.0,1759202894255215297
1.27718311602841e-06,0.0,1759202894274485235
1.2355154770747021e-05,0.0,1759202894296373085
4.964742326781364e-06,0.0,1759202894314876066
1.0465628718067668e-05,0.0,1759202894336528897
2.7736727451935876e-06,0.0,1759202894354674858
-5.192538348598233e-06,0.0,1759202894376043622
-6.162395673707372e-07,0.0,1759202894395919850
-5.362698025554088e-06,0.0,1759202894415517971
-2.1599567676926057e-05,0.0,1759202894435316947
-6.336731619712829e-06,0.0,1759202894455393722
-4.059825607131829e-06,0.0,1759202894474629168
-1.0915940312841037e-05,0.0,1759202894496644424
-3.7283455703383552e-06,0.0,1759202894514615409
-7.291754606148356e-06,0.0,1759202894536658077
-1.1557257813744547e-06,0.0,1759202894554314731
8.068712860562054e-08,0.0,1759202894574862224
4.310847310928332e-06,0.0,1759202894596241444
1.8388246855049601e-06,0.0,1759202894615565149
1.2139993945820157e-06,0.0,1759202894634870501
1.6086038327168364e-06,0.0,1759202894656653844
8.773456449530872e-07,0.0,1759202894674444448
5.632866879683121e-06,0.0,1759202894695448153
5.740113661800918e-07,0.0,1759202894715614259
5.126107992224043e-06,0.0,1759202894736383135
-3.856559734241363e-07,0.0,1759202894755668980
-7.155880029495703e-07,0.0,1759202894774348667
1.4255406647532315e-06,0.0,1759202894796600128
9.447249209630665e-08,0.0,1759202894814914478
-1.3377620000558368e-06,0.0,1759202894835971453
3.409239420547503e-07,0.0,1759202894856456231
-1.2904188046940245e-06,0.0,1759202894876096393
3.743730957854175e-06,0.0,1759202894895442686
-8.797994897116205e-07,0.0,1759202894915481365
-1.117634323471645e-06,0.0,1759202894934741775
-6.802287298638542e-07,0.0,1759202894956398918
-9.787739275656967e-07,0.0,1759202894974530898
1.0253903682531194e-06,0.0,1759202894996947702
-2.372549781453177e-07,0.0,1759202895014600550
8.425143620601405e-07,0.0,1759202895036759345
-4.6486777838229783e-07,0.0,1759202895054479654
-1.8033682671195027e-06,0.0,1759202895075726527
2.9171963029537008e-06,0.0,1759202895095430509
-1.3127161918192961e-06,0.0,1759202895115623208
3.0739699565211273e-06,0.0,1759202895135383125
-1.372925980109192e-06,0.0,1759202895155561280
-1.7699626464001322e-06,0.0,1759202895174356236
3.6791748026130055e-07,0.0,1759202895196588029
-1.3688751866025205e-06,0.0,1759202895214476120
-8.243315654199148e-06,0.0,1759202895237099345
-2.571817574849875e-06,0.0,1759202895254665065
-1.2986638163020077e-06,0.0,1759202895274801491
-8.096213153768055e-06,0.0,1759202895296720787
-3.376093638304521e-06,0.0,1759202895314687264
-6.688340410308287e-06,0.0,1759202895336510952
1.6144375442863886e-06,0.0,1759202895355310997
3.061658746333326e-06,0.0,1759202895374627038
7.934481345988017e-06,0.0,1759202895396029919
3.234444379934574e-06,0.0,1759202895415806023
7.66315552884648e-06,0.0,1759202895435817127
2.071271053338176e-06,0.0,1759202895455141747
1.5137207636141074e-06,0.0,1759202895475160278
3.4489933402221305e-06,0.0,1759202895496751957
1.8976664749872211e-06,0.0,1759202895514837358
2.841417506973258e-06,0.0,1759202895536549806
1.275198711541058e-06,0.0,1759202895554399786
-3.227574212511166e-07,0.0,1759202895575584816
-1.645202065461953e-05,0.0,1759202895595512124
-1.6832567718031732e-06,0.0,1759202895615674454
-1.6129861516275753e-05,0.0,1759202895635772528
3.4423618444663284e-07,0.0,1759202895655344863
1.4119290052878983e-06,0.0,1759202895674806086
-5.300335755980477e-06,0.0,1759202895696323599
-1.167329474595951e-06,0.0,1759202895715117926
-4.518259736122456e-06,0.0,1759202895736881108
-5.457409612379421e-08,0.0,1759202895754547135
4.525247086739261e-06,0.0,1759202895775595526
1.013673176989769e-05,0.0,1759202895796171279
4.467794120012739e-06,0.0,1759202895815282436
9.426524834053581e-06,0.0,1759202895835523871
3.1357039288681505e-06,0.0,1759202895855348618
2.1606947591947325e-06,0.0,1759202895874621299
4.514934092757129e-06,0.0,1759202895896478395
1.918155297149601e-06,0.0,1759202895914725665
3.1273993206788295e-06,0.0,1759202895936704994
8.905646692206572e-07,0.0,1759202895954530809
3.974937521555965e-07,0.0,1759202895974699271
2.6322440971284735e-06,0.0,1759202895996642549
-1.7124738958246052e-07,0.0,1759202896015052916
2.280535396246695e-06,0.0,1759202896035587731
-3.8911502718332355e-07,0.0,1759202896055647341
-9.078853850790998e-07,0.0,1759202896075035720
4.099805393129812e-06,0.0,1759202896095927435
-1.0351524613983457e-06,0.0,1759202896115611813
3.9958199117334e-06,0.0,1759202896135615558
-1.3401213558148806e-06,0.0,1759202896155413095
-1.577644082700518e-06,0.0,1759202896174844267
7.41353606804297e-07,0.0,1759202896196679954
-5.754998505306602e-07,0.0,1759202896214845805
6.439139959445805e-07,0.0,1759202896236818505
-7.464678215392549e-07,0.0,1759202896254634992
-2.212776594200392e-06,0.0,1759202896275607741
2.870524733004709e-06,0.0,1759202896295848159
-1.7954170684047698e-06,0.0,1759202896315664690
2.644606555263671e-06,0.0,1759202896337372029
-2.665712724213963e-06,0.0,1759202896355407290
-2.7506597344085045e-06,0.0,1759202896374667592
-4.0841123480502484e-07,0.0,1759202896396163531
-1.521718653801435e-06,0.0,1759202896414508322
-2.7796015327371966e-07,0.0,1759202896436336178
-1.4739089038297062e-06,0.0,1759202896454499530
-2.7263239760359673e-06,0.0,1759202896476064221
2.3308502890616005e-06,0.0,1759202896495329243
-1.9796834800566797e-06,0.0,1759202896515439224
2.4385821543006388e-06,0.0,1759202896535879014
-2.259764888703053e-06,0.0,1759202896555145458
-2.558539313907674e-06,0.0,1759202896574777989
-2.917022217102566e-07,0.0,1759202896597051205
-2.072728203950419e-06,0.0,1759202896614403557
-7.641273159046218e-07,0.0,1759202896636657069
-2.1913226222848815e-06,0.0,1759202896654707838
-2.3002831821468374e-06,0.0,1759202896674666610
-1.5877130720706446e-05,0.0,1759202896696734349
-4.962516957973405e-06,0.0,1759202896714895655
-1.3475363624861931e-05,0.0,1759202896736988868
2.0985455065707376e-06,0.0,1759202896755973715
3.6622336019479566e-06,0.0,1759202896774255398
9.577160789792349e-06,0.0,1759202896795918059
3.7557941015533084e-06,0.0,1759202896815729149
7.97964141174825e-06,0.0,1759202896836272163
2.2660659559483555e-06,0.0,1759202896855511289
1.6718693182717886e-06,0.0,1759202896874681056
3.4511326238244038e-06,0.0,1759202896896886497
1.9127986356180668e-06,0.0,1759202896914408408
2.7852764666622394e-06,0.0,1759202896936588568
1.2756873827603583e-06,0.0,1759202896954337804
-2.957739226381373e-07,0.0,1759202896975105220
4.1052215220872825e-06,0.0,1759202896995775896
-4.0100898478940044e-07,0.0,1759202897015565686
3.79547606100291e-06,0.0,1759202897036311923
-9.09044060494654e-07,0.0,1759202897055683639
-1.1458538630571793e-06,0.0,1759202897074782913
8.709872289203664e-07,0.0,1759202897096458889
-2.894117369336333e-07,0.0,1759202897114679229
6.963429875625811e-07,0.0,1759202897137684360
-5.940572865571555e-07,0.0,1759202897154542324
-1.8708511938722767e-06,0.0,1759202897175561172
2.495704220466692e-06,0.0,1759202897195848490
-1.6688768617114391e-06,0.0,1759202897215199118
2.3373946196351294e-06,0.0,1759202897236081996
-2.0293608266223663e-06,0.0,1759202897255265369
-2.3208419111283958e-06,0.0,1759202897274544447
-1.9308522522335156e-07,0.0,1759202897296453403
-1.7858118336027437e-06,0.0,1759202897314500392
-5.71790967803031e-07,0.0,1759202897336407016
-1.9271646574561276e-06,0.0,1759202897354362670
-2.0273835283064305e-06,0.0,1759202897375187281
-1.0825331668601053e-05,0.0,1759202897396423084
-5.9134003347754194e-06,0.0,1759202897414679422
-9.277515014562206e-06,0.0,1759202897436470479
-6.970373947725747e-07,0.0,1759202897455820667
1.0953041196270506e-06,0.0,1759202897474406541
-1.3757367399982362e-05,0.0,1759202897495866285
2.206658611902304e-06,0.0,1759202897515161432
-1.2688836407616677e-05,0.0,1759202897535482922
3.4324277742719396e-06,0.0,1759202897555342906
4.231225993955877e-06,0.0,1759202897574458764
-2.710439317705769e-06,0.0,1759202897596446855
1.310864830821592e-06,0.0,1759202897614558500
-2.381918470822593e-06,0.0,1759202897636184237
1.7926630622890066e-06,0.0,1759202897654294454
6.260081806549354e-06,0.0,1759202897675358510
-8.955006964899438e-06,0.0,1759202897695643119
4.914749806821557e-06,0.0,1759202897715936821
-9.856707458292064e-06,0.0,1759202897735367357
5.160776631580369e-06,0.0,1759202897755026720
5.678688223485854e-06,0.0,1759202897774776559
9.512500572736497e-06,0.0,1759202897796667754
7.236156069415072e-06,0.0,1759202897814724144
8.103547782293468e-06,0.0,1759202897836477465
5.7520998253971365e-06,0.0,1759202897854741090
3.3387933670217614e-06,0.0,1759202897875498367
8.713953319607416e-06,0.0,1759202897896089345
2.568872429789172e-06,0.0,1759202897915798486
-1.2966701593257052e-05,0.0,1759202897936003713
4.390461301822635e-07,0.0,1759202897955661763
1.9250584845268326e-06,0.0,1759202897974472060
-4.900693879208255e-06,0.0,1759202897996576798
1.2736478531567085e-06,0.0,1759202898014261521
-2.3535646903632342e-06,0.0,1759202898036956203
2.835819406525325e-06,0.0,1759202898054791443
3.603172471720422e-06,0.0,1759202898075118155
-6.835599159283731e-06,0.0,1759202898097577801
2.7544117136989647e-06,0.0,1759202898114758446
-5.1846011321054215e-06,0.0,1759202898136728932
7.843825110230631e-06,0.0,1759202898155511468
8.547172212773276e-06,0.0,1759202898174458011
1.6450369336812036e-05,0.0,1759202898196151237
7.446223466180972e-06,0.0,1759202898215728246
1.3465696990795729e-05,0.0,1759202898235645712
5.1182261490235325e-06,0.0,1759202898255177545
4.079502434636919e-06,0.0,1759202898274317639
6.427375811935336e-06,0.0,1759202898296919903
4.147476042582956e-06,0.0,1759202898315248098
5.288669068302099e-06,0.0,1759202898336918437
3.0247533329198574e-06,0.0,1759202898354993225
6.33128383753507e-07,0.0,1759202898375568295
8.160253812441408e-06,0.0,1759202898395425474
7.463648738319127e-07,0.0,1759202898415658490
7.630991724504225e-06,0.0,1759202898435864469
-3.321271236549555e-07,0.0,1759202898455376526
-1.1886938022820288e-06,0.0,1759202898474246585
2.1418636655020123e-06,0.0,1759202898497009957
-9.918525057689714e-07,0.0,1759202898514554872
9.205559423130267e-06,0.0,1759202898536374165
3.1290130882270506e-06,0.0,1759202898554363099
-3.4564508725858384e-06,0.0,1759202898575736902
-1.749652912872744e-05,0.0,1759202898595394998
-4.884125285067657e-06,0.0,1759202898615094028
-1.8068347681111522e-05,0.0,1759202898635318979
-3.0087696746014753e-06,0.0,1759202898655452118
-1.0132568249173015e-06,0.0,1759202898674332705
-7.268029267836122e-06,0.0,1759202898696837216
-8.462615792258142e-07,0.0,1759202898714364833
-4.261227318897227e-06,0.0,1759202898736631876
1.027910881488234e-06,0.0,1759202898754484621
2.8309441943594235e-06,0.0,1759202898775726128
-4.871683536925755e-06,0.0,1759202898795415452
1.6345225671231844e-06,0.0,1759202898815102133
-4.659751224072032e-06,0.0,1759202898835793825
2.1545758134444965e-06,0.0,1759202898855462285
3.3439294890411323e-06,0.0,1759202898874658869
-9.149362372036998e-06,0.0,1759202898896462215
4.0495603089701295e-06,0.0,1759202898915675454
-8.571585696227769e-06,0.0,1759202898936107897
4.923390410569633e-06,0.0,1759202898955683188
5.413421633045534e-06,0.0,1759202898974282266
-4.212390145003963e-07,0.0,1759202898996900921
2.876288528350488e-06,0.0,1759202899014504559
-2.8745358404078165e-07,0.0,1759202899037009131
3.128067696064625e-06,0.0,1759202899054618190
6.608119207819495e-06,0.0,1759202899076083227
-6.771502063523028e-06,0.0,1759202899095650422
5.131561960760692e-06,0.0,1759202899115194277
-6.827292292850465e-06,0.0,1759202899135599860
5.481431038490049e-06,0.0,1759202899155443757
5.842501386212733e-06,0.0,1759202899174322933
1.0568234316288951e-05,0.0,1759202899196534012
7.586882520272992e-06,0.0,1759202899214310350
8.871936181362225e-06,0.0,1759202899236862367
5.760246309294172e-06,0.0,1759202899254308124
2.6935074979093167e-06,0.0,1759202899275622402
1.0447835950265165e-05,0.0,1759202899295874250
2.0354400819635864e-06,0.0,1759202899315439246
9.44901704408623e-06,0.0,1759202899335480329
1.1015164720224506e-06,0.0,1759202899355841668
1.2948680834248146e-08,0.0,1759202899374485857
-6.923075289236953e-06,0.0,1759202899397022385
-1.11957749498142e-06,0.0,1759202899414448132
-4.314450077404096e-06,0.0,1759202899437228744
8.126136590999805e-07,0.0,1759202899454424038
1.6867507580091772e-06,0.0,1759202899474745450
-3.945621902109041e-06,0.0,1759202899496500604
2.395880759617023e-06,0.0,1759202899515309344
-3.6478979244686285e-06,0.0,1759202899535726570
2.716338442847415e-06,0.0,1759202899555264541
3.737336609586167e-06,0.0,1759202899574751187
1.2160985453875783e-05,0.0,1759202899595698121
3.647625565244478e-06,0.0,1759202899615074174
-8.515365855557403e-06,0.0,1759202899636416730
2.2631784765862934e-06,0.0,1759202899655321784
2.749542744172896e-06,0.0,1759202899674993027
-2.722577315804806e-06,0.0,1759202899696505070
3.290863751967829e-07,0.0,1759202899715035119
-2.4349330527939873e-06,0.0,1759202899736288920
7.529000466678588e-07,0.0,1759202899754663368
4.200991762403896e-06,0.0,1759202899775654787
-7.575395989467317e-06,0.0,1759202899795438157
3.0198336187193182e-06,0.0,1759202899815701176
-8.017494663837985e-06,0.0,1759202899835382037
3.140073753551242e-06,0.0,1759202899855564368
4.128924144855688e-06,0.0,1759202899875005599
-1.296014690420491e-06,0.0,1759202899896698811
1.4304358034911104e-06,0.0,1759202899914295139
-1.5754027103873296e-07,0.0,1759202899936628269
2.2115906379370433e-06,0.0,1759202899954448955
4.681537001108607e-06,0.0,1759202899975938435
-6.522460254357304e-06,0.0,1759202899995290276
3.3606307641020563e-06,0.0,1759202900015231847
-6.633037134444196e-06,0.0,1759202900035653383
3.927499954595938e-06,0.0,1759202900055348884
4.750709706150121e-06,0.0,1759202900074642494
-4.557589301546587e-07,0.0,1759202900096266523
3.4647619248552117e-06,0.0,1759202900114666457
5.769101898896162e-07,0.0,1759202900136686558
3.887214862971856e-06,0.0,1759202900155047338
4.2523117049597985e-06,0.0,1759202900174932050
1.0285724606500699e-05,0.0,1759202900196588374
4.761912322885565e-06,0.0,1759202900215372704
9.243231368633453e-06,0.0,1759202900235375241
3.514247222985923e-06,0.0,1759202900255168602
2.1026745062856973e-06,0.0,1759202900274661671
1.1664889966062983e-05,0.0,1759202900295570644
1.290782188377641e-06,0.0,1759202900315213927
1.064200483501329e-05,0.0,1759202900335478786
-1.211561936130778e-07,0.0,1759202900355091265
-8.389562973485921e-07,0.0,1759202900374494897
3.424409048769881e-06,0.0,1759202900396542187
7.024932475012235e-07,0.0,1759202900414947957
2.9482611392704775e-06,0.0,1759202900436502825
1.3360743022913336e-07,0.0,1759202900454732711
-2.8448527450464005e-06,0.0,1759202900476065756
6.7872874234698695e-06,0.0,1759202900496437806
-2.87160441554239e-06,0.0,1759202900515405574
6.1332576695716895e-06,0.0,1759202900536012498
-3.7038643481685605e-06,0.0,1759202900555292311
-4.020940328083662e-06,0.0,1759202900574555886
-1.0230896587962286e-05,0.0,1759202900596257203
-6.691568915830869e-06,0.0,1759202900614648937
-8.801159900164225e-06,0.0,1759202900636299642
-5.0534883609064245e-06,0.0,1759202900654347816
-1.2142478649693747e-06,0.0,1759202900675512267
-1.1834256309670854e-05,0.0,1759202900695548710
-8.920176103563385e-07,0.0,1759202900715135024
-1.0781350434538678e-05,0.0,1759202900735430555
3.6113156747788717e-07,0.0,1759202900755329202
1.578085335024599e-06,0.0,1759202900774680361
7.0140204060203515e-06,0.0,1759202900796369929
2.7118270240782326e-06,0.0,1759202900814533722
5.051390014224599e-06,0.0,1759202900836414460
1.270094951139295e-06,0.0,1759202900854880608
4.0435642604844945e-07,0.0,1759202900874599820
6.840275775836147e-06,0.0,1759202900896537162
-1.018661314020478e-06,0.0,1759202900915716933
3.1045005218643664e-06,0.0,1759202900935767595
6.107794041720078e-07,0.0,1759202900954607692
-2.1440849459609604e-06,0.0,1759202900975321745
7.1694457258964405e-06,0.0,1759202900996766490
-2.81365117892673e-06,0.0,1759202901015274317
-1.4465764158608154e-05,0.0,1759202901035501784
-4.1504721789022646e-06,0.0,1759202901055177899
-3.0664551331569162e-06,0.0,1759202901074585197
-7.577372045896339e-06,0.0,1759202901096620570
-4.074683554551714e-06,0.0,1759202901114379093
-6.175757811307574e-06,0.0,1759202901136502390
-2.72377854519192e-06,0.0,1759202901154590264
8.629170728570465e-07,0.0,1759202901175842418
-9.889629261117178e-06,0.0,1759202901195898130
4.908622544513689e-07,0.0,1759202901215746596
-9.52760726851001e-06,0.0,1759202901235800121
1.652697832063724e-06,0.0,1759202901255162969
2.2444520710733405e-06,0.0,1759202901274554528
-2.3748709436566403e-06,0.0,1759202901296352522
3.386111539220154e-07,0.0,1759202901314827194
-1.9790516184465417e-06,0.0,1759202901337438241
1.0440602733085774e-06,0.0,1759202901354421662
4.060181680044808e-06,0.0,1759202901375372038
-6.160837226529211e-06,0.0,1759202901395677220
3.537239152872712e-06,0.0,1759202901415040166
-6.052047971646655e-06,0.0,1759202901435260710
3.8534288755020695e-06,0.0,1759202901455202158
4.6037099875293265e-06,0.0,1759202901474792591
-2.9066172795631735e-07,0.0,1759202901496632425
3.5182358386534654e-06,0.0,1759202901514427012
7.451090706683288e-07,0.0,1759202901536463974
3.922744708640262e-06,0.0,1759202901554356653
4.218424452487043e-06,0.0,1759202901574821654
-3.137381828594435e-06,0.0,1759202901597175207
5.204736339582703e-06,0.0,1759202901615653113
4.083853686902883e-07,0.0,1759202901635927926
4.713235954074413e-06,0.0,1759202901655597779
5.206853269818039e-06,0.0,1759202901674720172
-4.142012943771818e-06,0.0,1759202901695760843
4.72940193675619e-06,0.0,1759202901715432789
-4.10291947427634e-06,0.0,1759202901735647707
4.958117296617144e-06,0.0,1759202901755140957
5.109419412295266e-06,0.0,1759202901774412416
1.1438935334474096e-05,0.0,1759202901796213134
7.591918191709937e-06,0.0,1759202901814334058
9.540866477198292e-06,0.0,1759202901837559440
5.401803983976257e-06,0.0,1759202901854481111
1.2934036624737977e-06,0.0,1759202901875398843
1.1951935294214332e-05,0.0,1759202901896291036
1.056965636071651e-07,0.0,1759202901915137936
1.057546098151242e-05,0.0,1759202901935548459
-1.1384299644371298e-06,0.0,1759202901955187759
-2.330655682601077e-06,0.0,1759202901974639718
2.962230028199883e-06,0.0,1759202901996369238
-1.5936422860752129e-06,0.0,1759202902014362904
1.3132766079458276e-06,0.0,1759202902036285538
-1.0079226162984137e-06,0.0,1759202902054547046
-3.6242989620810518e-06,0.0,1759202902075731365
6.436421463817636e-06,0.0,1759202902095593496
-2.866762137402025e-06,0.0,1759202902115312243
7.074195212050442e-06,0.0,1759202902135849097
-3.5122819351497644e-06,0.0,1759202902155428237
-4.388757866691413e-06,0.0,1759202902174419163
1.2120955845601165e-06,0.0,1759202902196516619
-3.1459779029112128e-06,0.0,1759202902215174461
2.8937954812929795e-08,0.0,1759202902236891726
-3.764660717207265e-06,0.0,1759202902254844445
-4.220565724884974e-06,0.0,1759202902274689284
4.127739320224259e-06,0.0,1759202902297532596
-5.752709899802889e-06,0.0,1759202902315869530
3.2212642829516515e-09,0.0,1759202902335459754
-2.6731108614750446e-06,0.0,1759202902354724355
-5.7716240969531595e-06,0.0,1759202902375597728
4.4764861216943495e-06,0.0,1759202902395978331
-4.888157625499458e-06,0.0,1759202902415691585
4.470722967003453e-06,0.0,1759202902435803945
-4.819304384759738e-06,0.0,1759202902456052748
-5.050012645902624e-06,0.0,1759202902474731501
-6.411260447937797e-07,0.0,1759202902496548665
-2.820288105930583e-06,0.0,1759202902514785096
-4.1074335063867053e-07,0.0,1759202902536502090
-2.7835907117895052e-06,0.0,1759202902554262990
-5.258589709052379e-06,0.0,1759202902575569392
4.211807899919288e-06,0.0,1759202902595438074
-4.1811031075865195e-06,0.0,1759202902615297354
4.517402383594466e-06,0.0,1759202902635452051
-4.23539023554515e-06,0.0,1759202902655471872
-4.446393121248578e-06,0.0,1759202902674794358
-3.523690431496028e-07,0.0,1759202902696781809
-2.461471450589057e-06,0.0,1759202902714582995
-2.3313169590040685e-07,0.0,1759202902736425076
-3.774733485262635e-06,0.0,1759202902754705640
-4.819664440525119e-06,0.0,1759202902775742744
3.862706452828402e-06,0.0,1759202902796104595
-4.068780721770316e-06,0.0,1759202902815845510
2.5841526354929613e-07,0.0,1759202902835483763
-3.7473773057281786e-06,0.0,1759202902855152962
-4.244857558236823e-06,0.0,1759202902874497484
3.950070286726376e-06,0.0,1759202902896003403
-3.974459820556183e-06,0.0,1759202902915733479
-4.625892580747639e-06,0.0,1759202902936216301
-3.0512180156086274e-06,0.0,1759202902955812969
-3.336107962449836e-06,0.0,1759202902974704967
8.847661836105623e-07,0.0,1759202902996399231
-1.350617876936339e-06,0.0,1759202903014531056
-3.6666614998350497e-06,0.0,1759202903036276751
-4.6479642892499465e-07,0.0,1759202903056097326
-3.232684896156592e-06,0.0,1759202903075849186
5.6382292134695905e-06,0.0,1759202903095794556
-2.751781693618057e-06,0.0,1759202903115229888
5.228558615444637e-06,0.0,1759202903135991917
-3.5047595713389503e-06,0.0,1759202903155324866
-3.759112838665307e-06,0.0,1759202903174665562
-4.606594782957287e-07,0.0,1759202903197157662
-2.24107781208106e-06,0.0,1759202903215173871
-4.069826452771793e-06,0.0,1759202903236188379
-1.3331265158001477e-06,0.0,1759202903256144685
-3.6058418011764037e-06,0.0,1759202903275357238
3.7245130411472354e-06,0.0,1759202903295318579
-2.7254469791532897e-06,0.0,1759202903315829237
-2.9299956314162577e-06,0.0,1759202903335044751
-2.1497014530893175e-06,0.0,1759202903356261822
-2.4432398327087415e-06,0.0,1759202903375644884
1.2006594851082191e-06,0.0,1759202903397174598
-2.1701998134513094e-06,0.0,1759202903414356133
6.904012641639412e-07,0.0,1759202903436722673
-2.5426237093306007e-06,0.0,1759202903454869155
-3.5614187068889613e-06,0.0,1759202903476006183
8.271446651568809e-07,0.0,1759202903495978568
-2.6660004129633193e-06,0.0,1759202903515396215
3.785601717931621e-06,0.0,1759202903536139594
-3.1384025459410067e-06,0.0,1759202903555450528
-3.625447971922621e-06,0.0,1759202903574566221
-2.0192620459702235e-05,0.0,1759202903596240792
-2.5230933508757417e-06,0.0,1759202903615316003
-6.078827061679263e-06,0.0,1759202903636541303
-7.402402154557478e-07,0.0,1759202903654616259
3.3722235146764467e-07,0.0,1759202903675131279
5.157217161226245e-06,0.0,1759202903696553296
3.1795936026067643e-06,0.0,1759202903714751215
4.6238558509377735e-06,0.0,1759202903736305619
2.466953928071592e-06,0.0,1759202903754621021
1.7160591443957732e-07,0.0,1759202903775377831
7.19844478964721e-06,0.0,1759202903796804654
-3.766417573090244e-07,0.0,1759202903816308474
6.78838062155456e-06,0.0,1759202903836203249
