loc_acc_x,loc_acc_y,stamp
1.036848077662418e-05,0.0,1759203754819648678
5.581736371386984e-06,0.0,1759203754819716375
8.762725508137333e-06,0.0,1759203754837890631
1.3189300314151008e-06,0.0,1759203754855819742
2.0297257344713944e-05,0.0,1759203754878352192
7.82537653728849e-06,0.0,1759203754896411935
-6.209976867519556e-06,0.0,1759203754916651478
1.2473404331568844e-06,0.0,1759203754936956435
-6.15615085415191e-06,0.0,1759203754956226806
-7.114944145570737e-06,0.0,1759203754975563537
-1.230262584075055e-05,0.0,1759203754997070202
-6.524201182556915e-06,0.0,1759203755016788811
-7.534432566397042e-06,0.0,1759203755037765421
-4.981334068374392e-06,0.0,1759203755055557263
-3.786323072993113e-06,0.0,1759203755077038797
-6.391947094076064e-06,0.0,1759203755096572006
-4.490749595676983e-06,0.0,1759203755115703560
-5.286665624138057e-06,0.0,1759203755137698875
-3.3733477596125832e-06,0.0,1759203755155902454
-1.3677476298756814e-06,0.0,1759203755176670085
-6.45928010853757e-06,0.0,1759203755196761582
-1.0419233416428455e-06,0.0,1759203755216358591
-5.755344301516067e-06,0.0,1759203755236815922
-1.9851556940309104e-07,0.0,1759203755256499477
2.0246649857764607e-07,0.0,1759203755275650021
-1.9568060398585217e-06,0.0,1759203755297607809
-5.174802668031142e-07,0.0,1759203755315795108
-1.6069306548143388e-06,0.0,1759203755337941912
-1.0483466593049163e-07,0.0,1759203755355581346
-5.737981435296092e-06,0.0,1759203755378398667
-1.4163278604734513e-06,0.0,1759203755395418040
2.8872227087656228e-06,0.0,1759203755416322443
-2.5299518562608846e-06,0.0,1759203755438253586
3.358158812980224e-06,0.0,1759203755456817402
3.4312617291153537e-06,0.0,1759203755476164762
6.057661747409553e-07,0.0,1759203755497393765
2.77200773461862e-06,0.0,1759203755515642106
1.0496289099044321e-05,0.0,1759203755538612928
3.840920501944086e-06,0.0,1759203755555947981
1.3564000583542633e-06,0.0,1759203755577521990
-3.86269046243061e-06,0.0,1759203755596574886
-1.2496354301587093e-07,0.0,1759203755616630865
-4.161976013074632e-06,0.0,1759203755637291246
5.204468425963972e-07,0.0,1759203755656272900
9.619581957763128e-07,0.0,1759203755676075424
-4.865226504713011e-06,0.0,1759203755697196096
1.0570938035272815e-06,0.0,1759203755716834517
-2.799060348210096e-07,0.0,1759203755737969663
1.3908027807121516e-06,0.0,1759203755755361501
-4.083972714533071e-06,0.0,1759203755777608448
9.73430085126424e-07,0.0,1759203755795561645
1.852072908025567e-06,0.0,1759203755816189061
6.097268687043942e-07,0.0,1759203755837624920
1.703530423344897e-06,0.0,1759203755855830697
-5.2102793801844246e-06,0.0,1759203755877563157
-9.573956158022912e-07,0.0,1759203755895972988
3.7603734527261167e-06,0.0,1759203755916272372
-1.4297010746151195e-06,0.0,1759203755937000567
3.7297460412367115e-06,0.0,1759203755956689434
-1.0276729066235155e-05,0.0,1759203755977414105
3.949062846954265e-06,0.0,1759203755996666967
4.538882291626092e-06,0.0,1759203756015655033
3.1487354152276522e-06,0.0,1759203756037959501
3.92351085910285e-06,0.0,1759203756055894282
-1.398992002151273e-06,0.0,1759203756077623619
1.6238967973120107e-06,0.0,1759203756095824841
4.922582000926097e-06,0.0,1759203756116665276
6.170909888661106e-07,0.0,1759203756136628879
4.330903916300802e-06,0.0,1759203756156548952
-1.1910996711837653e-05,0.0,1759203756177449734
4.559353641066953e-06,0.0,1759203756196333684
5.914365396707075e-06,0.0,1759203756215585164
3.635609948601712e-06,0.0,1759203756237363953
5.236500477913478e-06,0.0,1759203756255561295
-7.554655898543693e-07,0.0,1759203756277783685
4.276321305858443e-06,0.0,1759203756295554883
5.8263042825069735e-06,0.0,1759203756316401832
1.3489503481599554e-06,0.0,1759203756336972718
5.190061071367147e-06,0.0,1759203756356660062
-6.705439750791216e-06,0.0,1759203756377345118
1.9635403730571075e-06,0.0,1759203756395482566
5.9394857888835995e-06,0.0,1759203756417092725
1.0380715388358946e-06,0.0,1759203756437133009
5.40462886121787e-06,0.0,1759203756456277096
7.416594290005253e-07,0.0,1759203756477963461
4.295080411349519e-06,0.0,1759203756495978574
4.646380859232819e-06,0.0,1759203756516035015
3.402346336385371e-06,0.0,1759203756537870645
3.9526905681435475e-06,0.0,1759203756555934919
4.6190003449269926e-06,0.0,1759203756576707810
5.037335450325455e-08,0.0,1759203756597711133
4.095953123282693e-06,0.0,1759203756616265559
-1.1731185562718262e-07,0.0,1759203756637459830
4.067432033968383e-06,0.0,1759203756656508762
-1.0000467123250609e-05,0.0,1759203756677126023
3.924835361528393e-06,0.0,1759203756696318246
4.487881821646743e-06,0.0,1759203756715545203
3.1096598127324188e-06,0.0,1759203756737922239
3.898026793533635e-06,0.0,1759203756755453782
4.736922763412064e-06,0.0,1759203756776908330
1.210795441195334e-06,0.0,1759203756796754428
3.854767831487141e-06,0.0,1759203756816577560
6.832516247292189e-07,0.0,1759203756837139336
3.5752200314422008e-06,0.0,1759203756856245277
3.4357250064321527e-06,0.0,1759203756875502069
1.8818339703132704e-06,0.0,1759203756898236943
2.928503276668069e-06,0.0,1759203756915580033
1.6171180364201243e-06,0.0,1759203756937451755
2.660305936158099e-06,0.0,1759203756955398234
-8.431748680229895e-07,0.0,1759203756978154694
2.250601882057303e-06,0.0,1759203756995924497
3.2323048600269926e-06,0.0,1759203757016642355
1.065042664584342e-06,0.0,1759203757036709873
2.642405515511509e-06,0.0,1759203757056738913
2.750911726576264e-06,0.0,1759203757076318703
1.1718949309907414e-06,0.0,1759203757097911791
2.2051341424091676e-06,0.0,1759203757115545338
-1.1981489891446713e-06,0.0,1759203757137193421
2.392267509853702e-06,0.0,1759203757156903424
2.647487465387188e-06,0.0,1759203757176814421
1.0141844611826843e-06,0.0,1759203757196676833
1.5023560690971623e-06,0.0,1759203757216455601
7.451090347449367e-07,0.0,1759203757237675668
1.3307119418991494e-06,0.0,1759203757256045351
1.976792512592974e-06,0.0,1759203757277370497
-7.660567010433879e-07,0.0,1759203757296985010
1.6007990998312614e-06,0.0,1759203757316470624
-8.207497391021436e-07,0.0,1759203757337234160
1.683326485610662e-06,0.0,1759203757356483592
1.6933201051136828e-06,0.0,1759203757375801721
5.090020836268566e-07,0.0,1759203757398026168
1.063475418082959e-06,0.0,1759203757415761384
4.200517339888984e-07,0.0,1759203757438332003
1.0225712235716876e-06,0.0,1759203757455722020
1.6429643311886373e-06,0.0,1759203757476991840
-8.781793218549122e-07,0.0,1759203757496702510
1.2971070085838107e-06,0.0,1759203757516502847
-9.375436490812135e-07,0.0,1759203757537322362
1.4001214394590132e-06,0.0,1759203757556558118
1.4265237622343129e-06,0.0,1759203757575780917
-1.6734620282891826e-07,0.0,1759203757597747202
1.1377224273564896e-06,0.0,1759203757615547882
-7.755039533119566e-08,0.0,1759203757637823722
1.2239570852988302e-06,0.0,1759203757656149819
1.631744877174877e-06,0.0,1759203757677129039
-1.3778910359196804e-06,0.0,1759203757696911225
1.3652016391147956e-06,0.0,1759203757716258537
-1.370521857719904e-06,0.0,1759203757736704477
1.3613533348382803e-06,0.0,1759203757756919259
1.556374139006985e-06,0.0,1759203757776040909
-2.351118673576613e-06,0.0,1759203757796693490
1.292725797782638e-06,0.0,1759203757816754286
1.9738998005276832e-05,0.0,1759203757837041731
2.208786680305201e-06,0.0,1759203757856544102
-1.23272389933791e-07,0.0,1759203757877159804
9.463103585595534e-06,0.0,1759203757896496536
4.631712517782503e-06,0.0,1759203757916024512
8.103868675559422e-06,0.0,1759203757937911317
2.8708840611377187e-06,0.0,1759203757956008910
-2.7057003222652394e-06,0.0,1759203757976707320
-6.5800831601409164e-06,0.0,1759203757997384102
-3.136171396053281e-06,0.0,1759203758016870862
-6.354593940205347e-06,0.0,1759203758037290110
-2.0904198434297506e-06,0.0,1759203758056453918
-1.6112628629623047e-06,0.0,1759203758075503793
-3.0250860952716597e-06,0.0,1759203758097375019
-1.819250330563155e-06,0.0,1759203758115368822
-2.461741675866567e-06,0.0,1759203758138156890
-1.2411191974589332e-06,0.0,1759203758155415178
2.585975863445521e-05,0.0,1759203758177786049
1.0922602450938228e-05,0.0,1759203758195472305
-4.4115584900673936e-06,0.0,1759203758216545587
1.2178891917268152e-05,0.0,1759203758236990532
-5.752739605121644e-06,0.0,1759203758256565965
-6.421069602527243e-06,0.0,1759203758275851209
1.5460438150906058e-06,0.0,1759203758297674863
-2.7354538296753068e-06,0.0,1759203758315849873
1.5389569786336666e-06,0.0,1759203758337374833
-5.664940407802227e-06,0.0,1759203758355617590
-1.3183178491723411e-05,0.0,1759203758377814782
-9.84921976808134e-06,0.0,1759203758395909584
-6.336782835668802e-06,0.0,1759203758416727689
-7.476146093955719e-06,0.0,1759203758436864472
-5.005488743685878e-06,0.0,1759203758456588533
-1.4237885098353787e-05,0.0,1759203758476649331
-6.61901355543467e-06,0.0,1759203758495961634
-2.3616399102104615e-06,0.0,1759203758516935439
-6.244870488063171e-06,0.0,1759203758537394194
-1.3023758997871693e-06,0.0,1759203758556471120
-6.705983241163037e-06,0.0,1759203758577873511
-1.3201149197268473e-06,0.0,1759203758595412670
-2.1728830195140206e-07,0.0,1759203758615801209
-1.2097363800537903e-06,0.0,1759203758637670303
5.170968100807978e-08,0.0,1759203758655630310
1.3690365552730035e-06,0.0,1759203758677139029
-3.0529070760293995e-06,0.0,1759203758696918323
1.0900563900245423e-06,0.0,1759203758716782174
-2.954831627973917e-06,0.0,1759203758737197077
1.4666209409465193e-06,0.0,1759203758756476668
1.6263773649020393e-06,0.0,1759203758775748106
-3.056723287897717e-07,0.0,1759203758797696548
7.415320710048611e-07,0.0,1759203758815591946
-2.52081464540936e-07,0.0,1759203758838256793
8.762703472933077e-07,0.0,1759203758855704413
2.029949462431873e-06,0.0,1759203758876886318
-2.2228775419157986e-06,0.0,1759203758896627314
1.637653489363407e-06,0.0,1759203758916216831
-2.174764868743789e-06,0.0,1759203758936825787
1.8029834543074317e-06,0.0,1759203758956563956
1.911727405871237e-06,0.0,1759203758975608915
6.027820028177007e-07,0.0,1759203758998140898
1.7191204582820189e-06,0.0,1759203759015837158
5.535631320666765e-07,0.0,1759203759037792502
1.706315606508792e-06,0.0,1759203759055445805
2.0000965913560225e-06,0.0,1759203759076982456
-7.225488098601037e-07,0.0,1759203759097003892
1.6256349895857893e-06,0.0,1759203759116980801
-8.927146462799411e-07,0.0,1759203759137010842
1.6328795658032438e-06,0.0,1759203759156351636
1.7595798268149092e-06,0.0,1759203759175825348
2.331982187857498e-05,0.0,1759203759197098066
9.199517359997526e-07,0.0,1759203759216244984
5.4298885782165204e-06,0.0,1759203759237761716
-1.033305427287302e-06,0.0,1759203759255648024
-3.2287843049752214e-06,0.0,1759203759277238243
6.426406207775825e-06,0.0,1759203759296547065
1.8541614595874563e-06,0.0,1759203759315655536
5.46192109031458e-06,0.0,1759203759338090998
6.745425700022448e-07,0.0,1759203759356765860
-1.167240874265875e-05,0.0,1759203759378286980
-7.464006000693885e-06,0.0,1759203759395476976
-3.358889339734362e-06,0.0,1759203759416693026
-7.5337777203593286e-06,0.0,1759203759436842110
-2.4669480081405724e-06,0.0,1759203759457217934
-1.880038198106988e-06,0.0,1759203759476188456
-3.745493843414166e-06,0.0,1759203759497382343
-2.272078896104484e-06,0.0,1759203759516088764
-3.133387971756308e-06,0.0,1759203759537478774
-1.6170859101124725e-06,0.0,1759203759555443261
-5.0739944910524894e-08,0.0,1759203759576451938
-4.471212619805421e-06,0.0,1759203759596704091
-1.1476940407269123e-08,0.0,1759203759616582934
-4.202317796590186e-06,0.0,1759203759636633234
3.5383319350906757e-07,0.0,1759203759656754648
6.450271804617838e-07,0.0,1759203759675637260
-1.2810585675802274e-06,0.0,1759203759697455300
5.174761748058463e-07,0.0,1759203759716149160
-1.0216071954446582e-06,0.0,1759203759738232899
8.970876759701559e-07,0.0,1759203759755868442
1.5057228098099933e-06,0.0,1759203759777290229
-2.506964695934458e-06,0.0,1759203759797053264
1.228017789846094e-06,0.0,1759203759816592785
1.0782630235531947e-05,0.0,1759203759836719956
2.9314264675264843e-06,0.0,1759203759856547255
1.1471310335123018e-06,0.0,1759203759875863931
1.6623937289718573e-05,0.0,1759203759897251081
-4.165985546161216e-07,0.0,1759203759916362133
1.4193803647055539e-05,0.0,1759203759937057120
-2.625918077390008e-06,0.0,1759203759956561850
1.5805119171404826e-05,0.0,1759203759978891117
-3.0181542107435034e-06,0.0,1759203759995559027
-6.040353063123096e-06,0.0,1759203760016108054
-1.8477361037031194e-06,0.0,1759203760037843236
-5.720805621886494e-06,0.0,1759203760055633603
1.2945273548422773e-05,0.0,1759203760077513898
1.0800399011745934e-06,0.0,1759203760096003888
-1.1814890694123619e-05,0.0,1759203760116878249
2.877489485793625e-06,0.0,1759203760137627823
-1.2267777233307121e-05,0.0,1759203760156402029
-3.17083204811722e-05,0.0,1759203760177251951
-1.2248520896362809e-05,0.0,1759203760196614358
-9.787543859014325e-06,0.0,1759203760215393388
-1.0303710742370875e-05,0.0,1759203760237952727
-7.739745095160018e-06,0.0,1759203760255768289
-1.3811743701738726e-05,0.0,1759203760277943707
-8.251210412230041e-06,0.0,1759203760295720948
-2.6060125923224494e-06,0.0,1759203760316888133
1.3296197222913832e-05,0.0,1759203760336736248
-1.5641947903437676e-07,0.0,1759203760356681595
-1.7623356977955778e-05,0.0,1759203760376993511
-2.479593654643962e-06,0.0,1759203760396248746
-6.18791679258533e-07,0.0,1759203760415444368
-2.2282791871761866e-06,0.0,1759203760438648358
4.9245529756550534e-08,0.0,1759203760455860259
8.18122966850325e-07,0.0,1759203760478701400
-2.9790820994244215e-06,0.0,1759203760496510439
5.030741159152379e-07,0.0,1759203760516594452
-1.3481185518519785e-06,0.0,1759203760536803625
5.86844179804152e-07,0.0,1759203760556870661
2.620365904333998e-05,0.0,1759203760577024559
1.3346202624520473e-05,0.0,1759203760595637166
-6.619767260679797e-07,0.0,1759203760616266417
3.5087744230325712e-06,0.0,1759203760637724686
-1.5237106776243886e-06,0.0,1759203760655873560
-3.2654703204590684e-06,0.0,1759203760676876840
4.776730329315881e-06,0.0,1759203760696766404
9.401377248752715e-07,0.0,1759203760715721794
4.086591457361698e-06,0.0,1759203760738354164
-7.789944446285207e-08,0.0,1759203760755939265
1.6793525229123215e-05,0.0,1759203760777694135
5.064792039648571e-06,0.0,1759203760795706443
-7.134126460779046e-06,0.0,1759203760816686245
6.474661724794573e-06,0.0,1759203760836817276
-7.183616734450538e-06,0.0,1759203760856662152
3.8253794538194475e-05,0.0,1759203760877064922
-7.528978488325345e-06,0.0,1759203760896289930
-9.876108801882734e-06,0.0,1759203760915474624
-5.837419093404988e-06,0.0,1759203760937710075
-8.689181503254705e-06,0.0,1759203760956015931
-1.1780211960873016e-05,0.0,1759203760977636125
3.8812997920675616e-06,0.0,1759203760996744029
-8.948284484451839e-06,0.0,1759203761016270114
4.516087094678351e-06,0.0,1759203761036830292
-9.06038918171031e-06,0.0,1759203761056455762
-9.126580957095145e-06,0.0,1759203761075797089
-2.6051046392085686e-06,0.0,1759203761097956218
-7.812121201804156e-06,0.0,1759203761115591360
-2.5803846921594885e-06,0.0,1759203761138363084
-7.982581026683701e-06,0.0,1759203761155680927
-9.391461258331025e-06,0.0,1759203761176595977
3.0632197411767394e-06,0.0,1759203761196981364
-7.895544194087969e-06,0.0,1759203761216693413
-1.1521379015880472e-06,0.0,1759203761236772722
-7.016649110842807e-06,0.0,1759203761256680448
-7.612126366422239e-06,0.0,1759203761276432086
5.82564680808618e-06,0.0,1759203761296873306
-6.5975003212739674e-06,0.0,1759203761316385392
5.541485602128946e-06,0.0,1759203761336804817
-6.818986059354319e-06,0.0,1759203761356598871
9.120800757722562e-06,0.0,1759203761377470501
-3.845300336858166e-06,0.0,1759203761395924710
-6.187271438916621e-06,0.0,1759203761415549842
-2.8816791524005907e-06,0.0,1759203761438226567
-5.782506860144406e-06,0.0,1759203761455829257
-8.908633690195976e-06,0.0,1759203761476586020
3.387754614264181e-06,0.0,1759203761497008898
-7.581277584487037e-06,0.0,1759203761516532856
4.007155658682963e-06,0.0,1759203761536755221
-7.422635343131453e-06,0.0,1759203761556537616
-7.49954537140472e-06,0.0,1759203761576141270
-1.8447727284303765e-06,0.0,1759203761597746653
-4.477915265949135e-06,0.0,1759203761615523224
-1.5048173855961958e-06,0.0,1759203761637979088
-4.319416189180967e-06,0.0,1759203761655810076
-7.395069085824163e-06,0.0,1759203761676290634
3.883304718515341e-06,0.0,1759203761697106898
-6.54181623838326e-06,0.0,1759203761716394434
4.318848592414388e-06,0.0,1759203761736635849
-6.23167071267601e-06,0.0,1759203761756823885
-6.403610106860189e-06,0.0,1759203761775627266
-1.7118765931062397e-06,0.0,1759203761797776067
-5.506981486314959e-06,0.0,1759203761815662131
-1.6564170380352693e-06,0.0,1759203761838418466
-5.515873716764469e-06,0.0,1759203761856136086
-6.602628713753678e-06,0.0,1759203761876809433
2.759906518499108e-06,0.0,1759203761896708181
-5.389248402097312e-06,0.0,1759203761916173051
-2.2020516964064112e-07,0.0,1759203761937286184
-5.026192226127196e-06,0.0,1759203761956762446
-5.600210692425392e-06,0.0,1759203761975648119
-1.4250790307829427e-06,0.0,1759203761997667875
-4.376293892155936e-06,0.0,1759203762015762838
-1.29899353539256e-06,0.0,1759203762037820219
-4.347381174294741e-06,0.0,1759203762055981923
-5.19328421555402e-06,0.0,1759203762076921149
3.9261483805320054e-07,0.0,1759203762097227131
-1.9323361442935523e-06,0.0,1759203762115886555
5.055082805630777e-07,0.0,1759203762137674928
-2.0198143929591113e-06,0.0,1759203762155692363
-4.709106136069884e-06,0.0,1759203762177007231
-1.5433026712595094e-05,0.0,1759203762197170971
-4.63214476866546e-06,0.0,1759203762216539429
-1.4296229973164776e-05,0.0,1759203762236724559
-2.9677503056231844e-06,0.0,1759203762257032428
-1.9065232755383175e-06,0.0,1759203762276399876
-6.384138459348139e-06,0.0,1759203762297465248
-3.220240322400417e-06,0.0,1759203762315821847
-5.281386075181463e-06,0.0,1759203762337886175
-1.9939450041558637e-06,0.0,1759203762355586029
1.3154249565046068e-06,0.0,1759203762377005142
-1.0067163658892431e-05,0.0,1759203762396911577
1.148907618841227e-06,0.0,1759203762416350767
-9.37862339941409e-06,0.0,1759203762436584388
1.8395809854305503e-06,0.0,1759203762456780631
2.4625249923627255e-06,0.0,1759203762475776163
-2.448528270525317e-06,0.0,1759203762497405753
2.0444090373206294e-06,0.0,1759203762515678678
-1.7767455541035152e-06,0.0,1759203762538441263
3.0888452087796943e-06,0.0,1759203762555506787
4.574655444680101e-06,0.0,1759203762576318151
1.339632192943749e-05,0.0,1759203762596808632
4.519071917974809e-06,0.0,1759203762616484281
8.695350146228474e-06,0.0,1759203762636808096
3.2230576644581197e-06,0.0,1759203762656688957
1.8775398962882575e-06,0.0,1759203762675915677
1.0877470813914643e-05,0.0,1759203762697558879
3.5856225915218455e-07,0.0,1759203762716411433
9.117307349448759e-06,0.0,1759203762736978663
-7.912466628568892e-07,0.0,1759203762756906991
-2.001572601186525e-06,0.0,1759203762777016955
3.0837813297148987e-06,0.0,1759203762797421750
4.99928406633936e-07,0.0,1759203762815526166
2.5479625962382325e-06,0.0,1759203762837794424
-5.8869122398855945e-08,0.0,1759203762856137406
-2.8886836431273557e-06,0.0,1759203762877066571
6.454833151884882e-06,0.0,1759203762896847629
-2.341279298253496e-06,0.0,1759203762916557653
6.038428750647372e-06,0.0,1759203762937276628
-3.2046261597201765e-06,0.0,1759203762956683621
-3.5157944824292106e-06,0.0,1759203762976302465
-9.908003403519719e-06,0.0,1759203762998436531
-6.122303235911091e-06,0.0,1759203763015846147
-8.27212134347613e-06,0.0,1759203763038720014
-4.288617585152507e-06,0.0,1759203763055845561
-3.0912070450808283e-07,0.0,1759203763076700518
-1.1665457182933971e-05,0.0,1759203763096615222
-3.343501547016312e-07,0.0,1759203763116319234
-1.0572927704148791e-05,0.0,1759203763136950793
1.1526080771618063e-06,0.0,1759203763156856593
1.842558033460487e-06,0.0,1759203763176002988
-3.117774217868827e-06,0.0,1759203763197395802
1.5712466697580992e-06,0.0,1759203763215418461
-2.3517718108935457e-06,0.0,1759203763237505558
2.3273790425720305e-06,0.0,1759203763255663095
3.871298012785255e-06,0.0,1759203763276877175
-6.183756004306205e-06,0.0,1759203763296932245
3.1411859930027435e-06,0.0,1759203763316594735
-2.0146050711242805e-06,0.0,1759203763336846587
3.0943588793107967e-06,0.0,1759203763356753774
3.901724511641196e-06,0.0,1759203763375556841
-1.766612402066116e-07,0.0,1759203763397687846
3.103218852344631e-06,0.0,1759203763415528861
1.9939744130740952e-07,0.0,1759203763438367818
3.6076472812509097e-06,0.0,1759203763455550468
4.528554979257232e-06,0.0,1759203763477039739
-1.3263833152645736e-06,0.0,1759203763496546276
1.0743702684277465e-06,0.0,1759203763515799188
-1.2489211730762786e-06,0.0,1759203763538455302
1.5198883561161396e-06,0.0,1759203763555880285
4.465882258091919e-06,0.0,1759203763576315527
1.5915673173260078e-05,0.0,1759203763596666267
4.4242378672207564e-06,0.0,1759203763616202478
1.3701347855967626e-05,0.0,1759203763637149347
1.8359698241919407e-06,0.0,1759203763656362180
9.06794761046875e-07,0.0,1759203763676387316
5.295382393887901e-06,0.0,1759203763698262473
2.115777378809885e-06,0.0,1759203763715811480
4.3223991093301645e-06,0.0,1759203763737470061
1.2529118389469158e-06,0.0,1759203763755954022
-2.073106015041604e-06,0.0,1759203763776724990
9.043824689769856e-06,0.0,1759203763796890612
-1.7960743212400508e-06,0.0,1759203763816418938
8.658783515038578e-06,0.0,1759203763836482990
-2.2189911856331224e-06,0.0,1759203763856849134
3.3063893866791876e-05,0.0,1759203763877373363
-3.0876577617765806e-06,0.0,1759203763896683783
-6.748949592348024e-06,0.0,1759203763916044996
-2.355062478129242e-06,0.0,1759203763937778503
-6.478760136386628e-06,0.0,1759203763955718231
-7.539122907908734e-06,0.0,1759203763977161349
2.7638686541450187e-06,0.0,1759203763996725602
-6.078276080619673e-06,0.0,1759203764016229505
2.863085150326391e-06,0.0,1759203764037220010
-6.3300016700381875e-06,0.0,1759203764056744735
-6.798119781237189e-06,0.0,1759203764075791456
5.976408624806902e-06,0.0,1759203764096882054
-6.319624800014954e-06,0.0,1759203764116279436
3.4868985034200146e-06,0.0,1759203764137092444
-6.937605205025251e-06,0.0,1759203764156599005
5.595968241556097e-06,0.0,1759203764177847129
-4.938987397935312e-06,0.0,1759203764195612070
-6.564255414850472e-06,0.0,1759203764215739995
-1.4218924168971236e-05,0.0,1759203764237377146
-1.0557766049366018e-05,0.0,1759203764255871174
-6.723514150930974e-06,0.0,1759203764276367395
-1.5992815395076958e-05,0.0,1759203764297667591
-4.604794695787295e-06,0.0,1759203764316647193
-1.3662304689934904e-05,0.0,1759203764337410952
-2.045364907058275e-06,0.0,1759203764356512047
3.0071931590509897e-05,0.0,1759203764376777443
1.1139072983587655e-06,0.0,1759203764396582847
-9.630044330992172e-07,0.0,1759203764415787264
1.4010169387897863e-06,0.0,1759203764437777159
-1.1073359992563806e-06,0.0,1759203764455620632
9.433885812750317e-06,0.0,1759203764477933510
1.9576486612694826e-06,0.0,1759203764495621623
-5.771688165907546e-06,0.0,1759203764516495876
2.9856841514378684e-06,0.0,1759203764536856623
-5.725256764979636e-06,0.0,1759203764556384756
2.640089499612765e-05,0.0,1759203764576695128
-4.107785123684585e-06,0.0,1759203764596852097
-7.305379886350853e-06,0.0,1759203764615607525
-3.3509546910986233e-06,0.0,1759203764637726568
-6.902395808522682e-06,0.0,1759203764655699918
-7.73822812405426e-06,0.0,1759203764677005471
1.4640743047656492e-06,0.0,1759203764696636161
-6.0372557977543585e-06,0.0,1759203764716748829
-1.1923364646025264e-06,0.0,1759203764736806466
-5.332390452586183e-06,0.0,1759203764756516723
9.075389589839502e-06,0.0,1759203764776971922
1.9741932273094836e-06,0.0,1759203764796143134
-6.220994354070504e-06,0.0,1759203764816498066
-3.223934905858264e-06,0.0,1759203764838171972
-5.818371742111841e-06,0.0,1759203764855682094
-5.846614943498206e-06,0.0,1759203764875678656
-1.6346396800574283e-06,0.0,1759203764897661878
-3.517876327795535e-06,0.0,1759203764916018573
-1.13846615759149e-06,0.0,1759203764937404546
-3.2034260812370254e-06,0.0,1759203764955727692
6.988080686167499e-06,0.0,1759203764977727153
3.37259171529368e-07,0.0,1759203764995804157
-6.692870264837752e-06,0.0,1759203765016749492
1.5175585125130173e-06,0.0,1759203765037370798
-6.771752302759403e-06,0.0,1759203765056245838
2.0020909096748257e-05,0.0,1759203765077047447
-6.555824052545053e-06,0.0,1759203765096656326
-7.78215615787006e-06,0.0,1759203765115427859
-5.177014034381319e-06,0.0,1759203765137580041
-6.7016409358935675e-06,0.0,1759203765155937727
-8.398421795814633e-06,0.0,1759203765177442233
5.095647940613635e-07,0.0,1759203765196485380
-6.296777436700829e-06,0.0,1759203765216853145
1.6724565889289319e-06,0.0,1759203765236653890
-5.848867809765744e-06,0.0,1759203765256304976
-5.793161426908475e-06,0.0,1759203765276447218
-1.9164366212702617e-06,0.0,1759203765297710465
-4.683271458522043e-06,0.0,1759203765315908391
-1.5802728849782627e-06,0.0,1759203765337663414
-4.48190759476609e-06,0.0,1759203765355665488
-5.26225524553632e-06,0.0,1759203765376799220
-1.7004489540534e-05,0.0,1759203765396740762
-5.380160217264788e-06,0.0,1759203765416514145
5.268309272623624e-07,0.0,1759203765436999236
-2.1661000236490624e-06,0.0,1759203765456730411
-2.5426154662817744e-06,0.0,1759203765475782704
5.054114159863323e-06,0.0,1759203765496696719
-2.1150908509788973e-06,0.0,1759203765517099360
5.071154753682682e-06,0.0,1759203765536726844
-2.315981353264282e-06,0.0,1759203765556715721
-2.615891235161627e-06,0.0,1759203765575811451
6.721815833064738e-07,0.0,1759203765597820727
-1.1711149709916032e-06,0.0,1759203765615635748
5.69024420095096e-07,0.0,1759203765637860038
-1.300956807314409e-06,0.0,1759203765656102661
-3.384330258660631e-06,0.0,1759203765676577576
3.8304137604562735e-06,0.0,1759203765696713608
-2.806445837101166e-06,0.0,1759203765716362603
3.881775171134754e-06,0.0,1759203765736591417
-2.8379241268867025e-06,0.0,1759203765756801774
-3.0515966969374787e-06,0.0,1759203765775884842
1.456003441876575e-07,0.0,1759203765797523564
-1.5204663534466232e-06,0.0,1759203765815496205
7.524095166816478e-07,0.0,1759203765837365353
-1.2659292306283648e-06,0.0,1759203765855758899
-3.5211480484993436e-06,0.0,1759203765876809987
4.294455777676763e-06,0.0,1759203765896735371
-2.8737658988716563e-06,0.0,1759203765916715954
4.464027932397037e-06,0.0,1759203765936896328
-3.18854350397546e-06,0.0,1759203765956478924
-3.418350554062473e-06,0.0,1759203765975492196
-1.137524710525213e-05,0.0,1759203765997808393
-4.51409402613475e-06,0.0,1759203766015832453
9.850779071969696e-07,0.0,1759203766037419748
-6.196202666793478e-07,0.0,1759203766055767476
-1.16662223090238e-06,0.0,1759203766077038460
3.051210227076078e-06,0.0,1759203766096522830
-7.200045255816068e-07,0.0,1759203766116854449
3.044335647845544e-06,0.0,1759203766137045279
-1.0672837018351e-06,0.0,1759203766156384518
-1.4161253819642612e-06,0.0,1759203766175918368
-2.0953805824749285e-05,0.0,1759203766197325847
-4.755218270391884e-07,0.0,1759203766216341727
-3.64453040837335e-05,0.0,1759203766236862186
1.5835777258765054e-06,0.0,1759203766256582523
6.124336535261045e-06,0.0,1759203766277318619
-1.3656289909680083e-05,0.0,1759203766297285637
-3.875882745076952e-06,0.0,1759203766315832510
-2.24017989052683e-05,0.0,1759203766337493974
-6.431343493367657e-06,0.0,1759203766355841440
1.0739049479409375e-05,0.0,1759203766376746091
3.946892896743899e-05,0.0,1759203766396716884
1.3558158316651345e-05,0.0,1759203766416919357
3.854598818422607e-05,0.0,1759203766436905052
8.381142621938676e-06,0.0,1759203766456403301
5.547841889365809e-06,0.0,1759203766475574041
1.644664857866976e-05,0.0,1759203766497561816
8.169325349233671e-06,0.0,1759203766515471159
2.3820312920031608e-05,0.0,1759203766537673651
9.659668318187609e-06,0.0,1759203766555749913
-5.517637595194737e-06,0.0,1759203766576218931
-1.619518582404186e-06,0.0,1759203766596934562
-6.7779681594239615e-06,0.0,1759203766616732186
-2.047212824177359e-06,0.0,1759203766636985567
-6.2668573525092315e-06,0.0,1759203766656256321
-6.161050781852899e-06,0.0,1759203766675928003
-3.5942341107687435e-06,0.0,1759203766698012156
-4.982871661386113e-06,0.0,1759203766715394094
-3.42100171171546e-06,0.0,1759203766737601715
-4.516909314237347e-06,0.0,1759203766755780455
-4.643761866548257e-06,0.0,1759203766776973437
-5.631119109876306e-05,0.0,1759203766796782141
-7.373367677495314e-06,0.0,1759203766816565490
-3.263448512876195e-05,0.0,1759203766836654359
-3.875630079131674e-06,0.0,1759203766856684980
2.274654469465854e-06,0.0,1759203766875767667
-5.0496985230097896e-05,0.0,1759203766897049523
6.193545626274359e-06,0.0,1759203766916297861
-4.444241339782945e-05,0.0,1759203766936499151
1.1027001547930276e-05,0.0,1759203766956348487
1.372663028745417e-05,0.0,1759203766976026866
2.3331406692457418e-05,0.0,1759203766997771830
1.860335978981511e-05,0.0,1759203767015965151
1.9530071226425397e-05,0.0,1759203767037586874
1.4824299103551594e-05,0.0,1759203767055759407
9.997701608836054e-06,0.0,1759203767076232153
1.916863275567412e-05,0.0,1759203767096977995
7.765542526439022e-06,0.0,1759203767116794035
1.5668882821929993e-05,0.0,1759203767136882692
5.027864394891903e-06,0.0,1759203767156310712
3.858317150705841e-06,0.0,1759203767175963474
7.373945304608478e-06,0.0,1759203767197686283
4.413077117184044e-06,0.0,1759203767215823204
6.067340566735283e-06,0.0,1759203767237701952
3.120097618761695e-06,0.0,1759203767255743894
1.2286853562077183e-07,0.0,1759203767277317542
9.009725838715791e-06,0.0,1759203767297033684
4.91450454967085e-08,0.0,1759203767316396463
-1.1956213482721266e-05,0.0,1759203767337007777
-1.543083722852407e-06,0.0,1759203767356659633
-6.998043328373363e-07,0.0,1759203767376065637
-2.607391946476387e-05,0.0,1759203767397919265
-3.0778992056329015e-06,0.0,1759203767415507078
-2.041678240417126e-05,0.0,1759203767437713947
2.811619801919299e-06,0.0,1759203767455425425
-5.480167828871642e-05,0.0,1759203767477768488
2.9193386859977826e-06,0.0,1759203767495508456
2.307405017168138e-05,0.0,1759203767516761479
-1.320202084908199e-06,0.0,1759203767537248173
2.201326123637305e-05,0.0,1759203767556522495
2.4922189847041228e-05,0.0,1759203767575465723
-2.4873313361775856e-06,0.0,1759203767596814866
2.2662522394409124e-05,0.0,1759203767616853787
-5.325961534581886e-06,0.0,1759203767636694678
2.088183052154889e-05,0.0,1759203767656479805
2.233784801254295e-05,0.0,1759203767677112509
5.569326269747854e-06,0.0,1759203767696555640
1.095682645496948e-05,0.0,1759203767716103133
3.784591327637924e-06,0.0,1759203767737882148
1.0251814864765373e-05,0.0,1759203767755777681
1.7339617481578298e-05,0.0,1759203767776513312
-1.0467356585368932e-05,0.0,1759203767796848081
1.4404975061797327e-05,0.0,1759203767816707622
-1.1736036841932926e-05,0.0,1759203767836922554
1.456162984137804e-05,0.0,1759203767856642015
1.501838402210899e-05,0.0,1759203767875747629
2.664658439141213e-06,0.0,1759203767897883622
8.904179641352502e-06,0.0,1759203767915468430
2.185193564025111e-06,0.0,1759203767937806068
8.542530650194732e-06,0.0,1759203767955779230
1.5563662507923213e-05,0.0,1759203767976552894
-3.0395868818201373e-05,0.0,1759203767996651141
1.1500508061526845e-05,0.0,1759203768016450275
-9.91489320425867e-06,0.0,1759203768036782465
1.4928556445312486e-05,0.0,1759203768056573310
1.521653694775781e-05,0.0,1759203768076079096
3.9621856714464424e-06,0.0,1759203768097443800
1.2446038825695936e-05,0.0,1759203768115767183
3.4890557777212445e-06,0.0,1759203768138010887
1.242970935922374e-05,0.0,1759203768155977311
1.1242697661616144e-05,0.0,1759203768177871560
1.3730824820200658e-05,0.0,1759203768195657582
1.3790596767625257e-05,0.0,1759203768216528960
-7.980427695565048e-06,0.0,1759203768237092047
1.1139309315963196e-05,0.0,1759203768256654583
1.2279962865660466e-05,0.0,1759203768276005964
-1.5848664850919583e-05,0.0,1759203768297156179
1.1250183724496328e-05,0.0,1759203768316700957
-1.0341585084410072e-05,0.0,1759203768337880919
1.4349375154953727e-05,0.0,1759203768356682538
1.4627736348501653e-05,0.0,1759203768375727129
1.4498972010299114e-05,0.0,1759203768397247950
1.3552960501508263e-05,0.0,1759203768415967593
1.206566721042715e-05,0.0,1759203768437969981
1.124319240043079e-05,0.0,1759203768456183576
1.0584052314933653e-05,0.0,1759203768476609668
8.16487443942432e-06,0.0,1759203768496742894
8.590027893140853e-06,0.0,1759203768516417405
5.310307091361867e-06,0.0,1759203768537064841
7.107801987701125e-06,0.0,1759203768556619999
6.573388922608525e-06,0.0,1759203768576094850
-4.935822910821396e-06,0.0,1759203768597955567
8.178929755333435e-07,0.0,1759203768615725862
-4.349285865718397e-06,0.0,1759203768637931673
1.848996411278602e-06,0.0,1759203768655410560
-2.3443356358938695e-05,0.0,1759203768677619288
-6.030771525277874e-06,0.0,1759203768695676926
1.2412931485399441e-05,0.0,1759203768716662404
-8.416307746400393e-06,0.0,1759203768736790450
1.1879641351929543e-05,0.0,1759203768756635013
-5.4448932281687746e-05,0.0,1759203768777752085
1.704226119559108e-05,0.0,1759203768796236038
2.2826384811164427e-05,0.0,1759203768815707593
2.3808753755386757e-05,0.0,1759203768837811513
2.2065097378841915e-05,0.0,1759203768855733350
2.0102956457034333e-05,0.0,1759203768877328812
1.855227027333972e-05,0.0,1759203768896688170
1.64056633480773e-05,0.0,1759203768916879430
1.513809212919947e-05,0.0,1759203768937468400
1.3243141667827573e-05,0.0,1759203768956737794
-3.182874456924907e-05,0.0,1759203768977155413
-1.0201023527503377e-05,0.0,1759203768995621955
1.271035122360172e-05,0.0,1759203769016719453
-8.420587570024765e-06,0.0,1759203769036991620
1.3275756573580285e-05,0.0,1759203769056841811
-1.2930770712107634e-05,0.0,1759203769078205720
9.774824963960224e-06,0.0,1759203769095701774
1.3253812056327475e-05,0.0,1759203769115889036
7.202270494972162e-06,0.0,1759203769137344339
1.1557370467475503e-05,0.0,1759203769155891657
-2.898409717752911e-05,0.0,1759203769178556159
8.76248813390439e-06,0.0,1759203769196003570
2.5822314346106976e-05,0.0,1759203769216727991
1.0819095393051916e-06,0.0,1759203769236716958
2.257424998910735e-05,0.0,1759203769256638431
-3.817813126176372e-05,0.0,1759203769277505300
2.2585618273545013e-05,0.0,1759203769296881440
2.4552783940411916e-05,0.0,1759203769316009902
1.8017994521546307e-05,0.0,1759203769337800566
2.098161254266796e-05,0.0,1759203769355427196
2.424547510450893e-05,0.0,1759203769376874321
4.5201912532420006e-06,0.0,1759203769396874562
1.985593879983076e-05,0.0,1759203769416525584
1.6606854350636654e-06,0.0,1759203769436701287
1.8018362083601213e-05,0.0,1759203769456255320
1.744768161536679e-05,0.0,1759203769475702030
8.46899962382039e-06,0.0,1759203769497411842
1.425449243339574e-05,0.0,1759203769515642897
7.144283105230683e-06,0.0,1759203769538188290
1.3644124737755518e-05,0.0,1759203769555413551
1.494874788959723e-05,0.0,1759203769577202343
1.7818307774833527e-05,0.0,1759203769596701796
1.3373829650839883e-05,0.0,1759203769616696831
2.551331135286446e-05,0.0,1759203769636856825
1.2367697091188154e-05,0.0,1759203769656507546
7.278846254090871e-05,0.0,1759203769677673695
2.2471177656893627e-05,0.0,1759203769696178370
-4.252767099422533e-06,0.0,1759203769716452062
2.4027481978480878e-05,0.0,1759203769736853307
-6.426540840653867e-06,0.0,1759203769756578395
-9.617532061432858e-06,0.0,1759203769777125894
-7.862341781470505e-06,0.0,1759203769797135624
-7.950232899015037e-06,0.0,1759203769816125769
-6.723877119352124e-06,0.0,1759203769837890319
-6.827978376748225e-06,0.0,1759203769855705955
-7.028310396191952e-06,0.0,1759203769877181883
-3.4671230278294104e-06,0.0,1759203769896723827
-5.674309863696288e-06,0.0,1759203769916312737
-2.546672573716655e-06,0.0,1759203769936794910
-4.881999501201642e-06,0.0,1759203769956977640
-4.599835562961983e-06,0.0,1759203769975660496
6.76643737348461e-06,0.0,1759203769997883847
7.334001108706188e-07,0.0,1759203770015472102
5.77631838809427e-06,0.0,1759203770037745960
-4.6854736024535887e-07,0.0,1759203770055723114
-7.015866587623074e-06,0.0,1759203770076844352
1.4916874729587548e-05,0.0,1759203770096775803
-5.7941217605890744e-06,0.0,1759203770116391211
1.4644934444987054e-05,0.0,1759203770136427312
-6.691075888078183e-06,0.0,1759203770156262970
-7.5030602352850715e-06,0.0,1759203770176158524
-1.86809276242202e-05,0.0,1759203770197396598
-9.785792163316194e-06,0.0,1759203770215686946
-1.5602769986889384e-05,0.0,1759203770237583500
-6.45395825563548e-06,0.0,1759203770256032348
-2.712795484758347e-06,0.0,1759203770277214891
-1.877443153723805e-05,0.0,1759203770297835241
-1.163526089423885e-06,0.0,1759203770316876953
-9.737891256044042e-06,0.0,1759203770336562619
-1.6676923646831227e-07,0.0,1759203770356454061
1.7198796954382277e-06,0.0,1759203770375995703
2.502885887469597e-05,0.0,1759203770396868361
2.549139924976376e-06,0.0,1759203770416439441
2.3046336194104188e-05,0.0,1759203770437131724
-9.680344847543786e-07,0.0,1759203770456615084
-3.923087805881807e-06,0.0,1759203770476588548
7.95544510408789e-06,0.0,1759203770496986104
1.890592508390154e-06,0.0,1759203770515421742
6.1317672827202796e-06,0.0,1759203770537914386
2.1766236209221234e-07,0.0,1759203770556412023
-6.33700173927975e-06,0.0,1759203770576865522
3.584297852595558e-05,0.0,1759203770596585662
-3.0628626564031513e-06,0.0,1759203770616569150
5.2895493630254396e-05,0.0,1759203770637334830
-8.492505130420273e-06,0.0,1759203770656554673
-1.1805576027635509e-05,0.0,1759203770675896090
1.4635373914107033e-05,0.0,1759203770697396090
-1.036361815263058e-06,0.0,1759203770715448737
2.243915833574124e-05,0.0,1759203770737816452
3.649135386805735e-07,0.0,1759203770755759786
-2.3232590000542756e-05,0.0,1759203770776463396
-7.368402971960379e-06,0.0,1759203770796818243
-2.236952213250445e-05,0.0,1759203770816447324
-6.445055166995087e-06,0.0,1759203770837137311
-2.0801278531877554e-05,0.0,1759203770856319823
-1.9816466814748943e-05,0.0,1759203770875681215
-1.1737397415940171e-05,0.0,1759203770898110442
-1.6600531659010647e-05,0.0,1759203770915613859
-9.860249685021496e-06,0.0,1759203770937895774
-1.4997965546450021e-05,0.0,1759203770955399756
-1.5889230339049934e-05,0.0,1759203770976711806
-7.569900099135406e-05,0.0,1759203770997160439
-1.4908098642394553e-05,0.0,1759203771016603533
-5.580502518226053e-05,0.0,1759203771036914272
-1.0678521906820389e-05,0.0,1759203771056825382
-7.659778599017235e-07,0.0,1759203771076013290
-0.00010346709197640431,0.0,1759203771097081315
5.039739664322281e-06,0.0,1759203771116453183
-2.4174780815180412e-05,0.0,1759203771137631092
1.0710199993088568e-05,0.0,1759203771156047087
1.6946360879143277e-05,0.0,1759203771175752113
3.720207475081952e-06,0.0,1759203771197417687
1.3408643963620544e-05,0.0,1759203771215677965
-7.450411506754429e-06,0.0,1759203771237661693
8.794305160744992e-06,0.0,1759203771255465186
2.533021405746626e-05,0.0,1759203771277222541
-3.685896049168568e-05,0.0,1759203771297055357
2.051754603269836e-05,0.0,1759203771316678309
-1.6617728220490643e-05,0.0,1759203771336655822
2.3662715285412143e-05,0.0,1759203771356270089
-9.555876551797159e-05,0.0,1759203771377361626
2.8659171199344548e-05,0.0,1759203771396432083
3.4116563430253947e-05,0.0,1759203771415849789
2.2454750503334913e-05,0.0,1759203771437894513
2.9872321786534777e-05,0.0,1759203771455425770
3.7818358648400145e-05,0.0,1759203771476561390
-2.0964407660456537e-05,0.0,1759203771496825504
3.070075929490197e-05,0.0,1759203771516416278
-2.2144152738161288e-05,0.0,1759203771537303842
3.309644942161698e-05,0.0,1759203771556648373
3.378224953389471e-05,0.0,1759203771575657876
2.8503241982091287e-05,0.0,1759203771597833864
3.133287013999107e-05,0.0,1759203771615932986
3.42289576722753e-05,0.0,1759203771637511478
2.8604391390646807e-05,0.0,1759203771655795298
2.4858040603214494e-05,0.0,1759203771677232046
2.924251033898462e-05,0.0,1759203771696737255
2.0416407609356853e-05,0.0,1759203771716778165
2.1802803482538836e-05,0.0,1759203771736715262
1.6228039053055926e-05,0.0,1759203771756656005
1.3838677152129291e-05,0.0,1759203771775710638
-2.1148643647819154e-05,0.0,1759203771796895404
1.0893293285858584e-05,0.0,1759203771816606716
-2.1540807692503222e-05,0.0,1759203771836705459
1.2300471054657988e-05,0.0,1759203771856390931
1.5566484561687883e-05,0.0,1759203771876393653
-3.0366208814477167e-06,0.0,1759203771896668023
4.569167516008697e-06,0.0,1759203771916330384
-3.5359232428828926e-06,0.0,1759203771937632573
5.263458530598928e-06,0.0,1759203771955529718
1.4488331924696336e-05,0.0,1759203771976626278
1.6899366368003648e-06,0.0,1759203771997075223
1.3218631680812354e-05,0.0,1759203772016532348
7.37550339568608e-07,0.0,1759203772036825374
1.2210542421124914e-05,0.0,1759203772056436038
1.1848907392586381e-05,0.0,1759203772075959977
5.68101569490942e-06,0.0,1759203772097784398
7.968325213018369e-06,0.0,1759203772115950800
4.436088578380695e-06,0.0,1759203772137544079
6.9553574371561285e-06,0.0,1759203772156217069
9.848854591869705e-06,0.0,1759203772176946493
-2.144871037736679e-05,0.0,1759203772197175610
7.706735904457218e-06,0.0,1759203772216685192
-2.218126796803559e-05,0.0,1759203772236479874
8.146248741829881e-06,0.0,1759203772256572086
9.422374992425931e-06,0.0,1759203772276678889
-4.700458449441305e-06,0.0,1759203772297618781
7.388213800931208e-06,0.0,1759203772315878548
-3.5298694515073754e-06,0.0,1759203772337962409
9.214895366292888e-06,0.0,1759203772355660376
1.3026657646598266e-05,0.0,1759203772377272284
-1.4670171152325453e-05,0.0,1759203772397027346
1.089649857377565e-05,0.0,1759203772416257859
-3.1801008105690838e-06,0.0,1759203772436617241
1.016518545409373e-05,0.0,1759203772456845620
1.2213390591853511e-05,0.0,1759203772475437759
-1.527788490839226e-05,0.0,1759203772497159442
1.2676609918459051e-05,0.0,1759203772516506528
-1.3324967803898494e-05,0.0,1759203772537459887
1.5353612115633707e-05,0.0,1759203772556371009
-7.336425202426853e-05,0.0,1759203772577109822
1.7157133545983867e-05,0.0,1759203772596433506
2.152349787368563e-05,0.0,1759203772615917717
1.3277308255885446e-05,0.0,1759203772637807904
1.8845252029034886e-05,0.0,1759203772655820726
-1.4108935811026497e-05,0.0,1759203772677783851
5.930642009218822e-06,0.0,1759203772695964771
2.738364945692989e-05,0.0,1759203772716697370
-1.9939577961179702e-05,0.0,1759203772736789025
2.4098129742654986e-05,0.0,1759203772756435252
1.0506415685478615e-05,0.0,1759203772777395009
2.663481559090988e-05,0.0,1759203772796631741
2.5261351630509467e-05,0.0,1759203772815526838
2.2103819704091715e-05,0.0,1759203772837473004
2.1029017398242123e-05,0.0,1759203772855441688
1.408680410028192e-05,0.0,1759203772877781241
1.5649473572031195e-05,0.0,1759203772895797357
1.7634868430255006e-05,0.0,1759203772916376538
1.2047460528959987e-05,0.0,1759203772936690968
1.4641785197988935e-05,0.0,1759203772956737016
-7.056436988999209e-05,0.0,1759203772976932469
8.70073026477383e-06,0.0,1759203772996568660
1.6749411916523194e-05,0.0,1759203773015797247
6.576326916759483e-06,0.0,1759203773037764414
1.6142611132412893e-05,0.0,1759203773055391477
1.8471798623533278e-05,0.0,1759203773076663588
-4.611110640609457e-06,0.0,1759203773096926409
1.5058471689524796e-05,0.0,1759203773116828937
2.6209607888764204e-06,0.0,1759203773137005920
1.3265932690647799e-05,0.0,1759203773156883337
-2.4779471028297293e-05,0.0,1759203773176865312
-6.055075067068706e-06,0.0,1759203773195782354
1.4621005023915347e-05,0.0,1759203773216711487
-7.9395190766578e-06,0.0,1759203773237019502
1.4387227464447757e-05,0.0,1759203773256854520
1.5951951087773405e-05,0.0,1759203773277321828
2.2702359391953714e-06,0.0,1759203773296828861
7.178254271085683e-06,0.0,1759203773315831569
-8.880543124797193e-06,0.0,1759203773337856942
2.469716596494813e-06,0.0,1759203773355915733
1.4397317534510224e-05,0.0,1759203773377199539
-8.11697658944282e-06,0.0,1759203773396641199
1.2276428429970958e-05,0.0,1759203773416390041
-8.013977516722468e-06,0.0,1759203773436968273
1.2416487136459037e-05,0.0,1759203773456913562
1.2723741357699634e-05,0.0,1759203773475657923
3.003210786860346e-06,0.0,1759203773498099522
7.825611801957147e-06,0.0,1759203773515654450
2.4832763293356516e-06,0.0,1759203773537960348
7.6201002840173064e-06,0.0,1759203773555538413
1.2951411099840705e-05,0.0,1759203773576719677
1.2907272470935766e-05,0.0,1759203773596710616
1.1623341994141643e-05,0.0,1759203773616885191
1.1216497891363747e-05,0.0,1759203773637107748
9.451036381471103e-06,0.0,1759203773656643752
8.45721107450793e-06,0.0,1759203773675876796
7.932067326150925e-06,0.0,1759203773697604194
6.849342280800044e-06,0.0,1759203773715674899
6.412947530474265e-06,0.0,1759203773737943125
5.476602173285502e-06,0.0,1759203773756198314
4.810543636134794e-06,0.0,1759203773777446674
-1.4837789879156372e-05,0.0,1759203773796594870
1.8666297142901376e-06,0.0,1759203773816728301
-7.667060299973297e-06,0.0,1759203773836614803
2.0113998608497543e-06,0.0,1759203773856822961
3.8910118272678e-06,0.0,1759203773875638353
-1.5097087127389484e-05,0.0,1759203773896797002
4.399148759674126e-06,0.0,1759203773916354295
-1.3468550719450844e-05,0.0,1759203773936814628
5.706498367362951e-06,0.0,1759203773956824056
7.667503178714591e-06,0.0,1759203773977092599
8.6231888559813e-06,0.0,1759203773996544838
7.460947107308136e-06,0.0,1759203774015833993
7.3497029340956994e-06,0.0,1759203774037821103
6.125637737157574e-06,0.0,1759203774056047202
4.933745566973587e-06,0.0,1759203774077065374
6.330726778577047e-06,0.0,1759203774097259129
3.931805044422756e-06,0.0,1759203774116493030
5.284388780504833e-06,0.0,1759203774137071553
2.941841672310799e-06,0.0,1759203774156629554
2.511054651525038e-06,0.0,1759203774175930803
3.059591777473072e-06,0.0,1759203774197517649
2.299248540309269e-06,0.0,1759203774215546257
2.4879825766927697e-06,0.0,1759203774237704362
1.7545063722804227e-06,0.0,1759203774255434147
1.0324396986736155e-06,0.0,1759203774276995829
2.7447789486115475e-06,0.0,1759203774296599870
8.684016807436026e-07,0.0,1759203774316481157
2.413230003128697e-06,0.0,1759203774337070499
4.6837413088797514e-07,0.0,1759203774356510833
7.739955489596485e-05,0.0,1759203774377277728
1.80723300992382e-06,0.0,1759203774397085850
-6.954377185642363e-06,0.0,1759203774415825318
1.7805387466315316e-06,0.0,1759203774437862478
-8.1110482855452e-06,0.0,1759203774455362034
-1.1101883440027548e-05,0.0,1759203774476304996
9.894042099752235e-06,0.0,1759203774496806353
-9.428513237663156e-06,0.0,1759203774516444516
1.7574716880967849e-06,0.0,1759203774536749714
-8.688290480958764e-06,0.0,1759203774556669923
-1.0193826348343272e-05,0.0,1759203774575356335
-8.52993716329734e-06,0.0,1759203774597746546
-9.54109354026001e-06,0.0,1759203774616841070
-7.553491848904274e-06,0.0,1759203774637250368
-8.018877391582174e-06,0.0,1759203774656216163
-7.304844623258219e-06,0.0,1759203774676094244
-6.083454393168717e-06,0.0,1759203774697201126
-5.742812499853721e-06,0.0,1759203774716043337
-4.9069198130382064e-06,0.0,1759203774737867827
-4.70894722430314e-06,0.0,1759203774755923782
-4.587172239805086e-06,0.0,1759203774776643296
1.7620227942644273e-05,0.0,1759203774796835045
-3.0790780770908933e-06,0.0,1759203774816313616
1.7204767244795515e-05,0.0,1759203774836559551
-4.311622565237108e-06,0.0,1759203774856758273
-5.430230082943152e-06,0.0,1759203774875751997
3.966114217713505e-06,0.0,1759203774897702204
-1.4734251772032997e-06,0.0,1759203774916008437
3.596750532438833e-06,0.0,1759203774937223472
-2.0138924562846662e-06,0.0,1759203774955683553
-8.18056132440788e-06,0.0,1759203774976437101
1.2140410113898657e-05,0.0,1759203774997236970
-7.172787059493954e-06,0.0,1759203775016792709
1.2623804735902335e-05,0.0,1759203775036644343
-7.24409655076256e-06,0.0,1759203775056661672
-7.961091692009936e-06,0.0,1759203775075882516
1.3088956015712194e-06,0.0,1759203775097320931
-6.451568990808617e-06,0.0,1759203775115675819
9.575939601322499e-07,0.0,1759203775137578985
-6.9658332826698935e-06,0.0,1759203775155946448
-9.532825368234771e-06,0.0,1759203775176503017
-1.0479664334905559e-05,0.0,1759203775196736582
-8.811524100581026e-06,0.0,1759203775216539612
-8.724456759060155e-06,0.0,1759203775237370264
-7.129613500206479e-06,0.0,1759203775256710992
-6.2643678449269195e-06,0.0,1759203775276432525
-7.183766551516234e-06,0.0,1759203775297094188
-4.98926450166347e-06,0.0,1759203775316371587
-4.898373813759402e-06,0.0,1759203775338428434
-3.888229124138111e-06,0.0,1759203775355537261
-8.221158593417177e-06,0.0,1759203775376988728
-2.787579537104264e-06,0.0,1759203775396464013
-2.1730296163484906e-06,0.0,1759203775416031405
-2.304474414838557e-06,0.0,1759203775437689663
-1.6945976360317472e-06,0.0,1759203775455970493
-1.068973182133317e-06,0.0,1759203775477077146
-2.3306000290420062e-06,0.0,1759203775497857369
-7.215115453926077e-07,0.0,1759203775516588376
-1.9633118453761207e-06,0.0,1759203775537187967
-3.595428074638228e-07,0.0,1759203775556450031
-2.205221998260564e-07,0.0,1759203775575684618
9.60364239598093e-06,0.0,1759203775597772935
4.109480472115896e-06,0.0,1759203775615682286
8.186511160475852e-06,0.0,1759203775637900565
2.4796869318172422e-06,0.0,1759203775655882202
-3.514470484376689e-06,0.0,1759203775676874141
1.5379787729297762e-05,0.0,1759203775696657255
-2.590287316464166e-06,0.0,1759203775716563146
1.4716804993465293e-05,0.0,1759203775736795774
-4.018751744266452e-06,0.0,1759203775756624308
-5.784866861711787e-06,0.0,1759203775775583331
3.481185210744426e-06,0.0,1759203775797434747
-4.062452302309126e-06,0.0,1759203775815581529
8.872354246654828e-07,0.0,1759203775838206484
-5.821517592798723e-06,0.0,1759203775855425539
-7.72718863307991e-06,0.0,1759203775876810277
9.57891617465828e-06,0.0,1759203775896772573
-6.079849293887081e-06,0.0,1759203775916314837
2.6769924775528216e-06,0.0,1759203775936989857
-5.9491772149099915e-06,0.0,1759203775956852230
-7.2715544154255615e-06,0.0,1759203775975501771
-9.600124471246506e-06,0.0,1759203775996960234
-6.8212083678444465e-06,0.0,1759203776016649513
-8.598834635919314e-06,0.0,1759203776037615511
-5.161639812591664e-06,0.0,1759203776056530267
-4.4583447279323625e-06,0.0,1759203776075825121
-5.094211051513074e-06,0.0,1759203776098343569
-3.932695268092665e-06,0.0,1759203776115873195
-4.141738537952198e-06,0.0,1759203776137669280
-3.0592132182481177e-06,0.0,1759203776155557742
-1.9690203642544867e-06,0.0,1759203776176643881
1.4701941793581778e-05,0.0,1759203776197484564
-1.6057120457187101e-06,0.0,1759203776216680885
1.399334016353811e-05,0.0,1759203776237101199
-3.2569650668006643e-06,0.0,1759203776256657725
-4.151608547850073e-06,0.0,1759203776275406233
2.881382516735943e-06,0.0,1759203776298279641
-1.5166091588629182e-06,0.0,1759203776315681832
1.2744866920822979e-05,0.0,1759203776337648660
2.4348395965823513e-06,0.0,1759203776355593601
1.4715286220247634e-05,0.0,1759203776378234225
1.3570563656677187e-06,0.0,1759203776395745590
-1.248421608068829e-05,0.0,1759203776416515198
2.99394331816993e-06,0.0,1759203776436667431
-1.1584125029636539e-05,0.0,1759203776456667701
3.885585261485921e-05,0.0,1759203776477114604
-1.03967519833628e-05,0.0,1759203776496676233
-1.5075249459681336e-05,0.0,1759203776515390030
-8.47801575536732e-06,0.0,1759203776537622389
-1.3721624801656598e-05,0.0,1759203776555392405
-1.4775779856680394e-05,0.0,1759203776576519287
-3.39311636117346e-07,0.0,1759203776596623952
-1.1749554724077805e-05,0.0,1759203776616959943
7.3418475007944505e-06,0.0,1759203776637278858
-9.041338679237142e-06,0.0,1759203776656708981
-1.1583048193808496e-05,0.0,1759203776675670346
2.2839119294644397e-05,0.0,1759203776696687983
-1.0978897544607585e-05,0.0,1759203776716306553
2.0412970556988626e-05,0.0,1759203776737118142
-1.4051102707886858e-05,0.0,1759203776756612084
2.735570221488746e-05,0.0,1759203776776933070
-1.5014119303937293e-05,0.0,1759203776796703119
-1.6448679486736776e-05,0.0,1759203776816438044
-1.202358536516979e-05,0.0,1759203776837576533
-1.4047883987323824e-05,0.0,1759203776855550578
1.5953266815302082e-06,0.0,1759203776877761485
-7.144265211201795e-06,0.0,1759203776895960469
-1.6962264552498077e-05,0.0,1759203776916383837
-4.776406293254145e-06,0.0,1759203776937718229
-1.6291638175388887e-05,0.0,1759203776956315980
2.3791784349561093e-05,0.0,1759203776976780177
-1.441641489986406e-05,0.0,1759203776996206331
-1.5630537811833795e-05,0.0,1759203777015636271
-1.1472402903358767e-05,0.0,1759203777038213223
-1.344057392877215e-05,0.0,1759203777055575185
-1.5629330210459517e-05,0.0,1759203777076453542
-3.259900180209794e-06,0.0,1759203777097248510
-1.3308760439254318e-05,0.0,1759203777116591804
-1.7370254961354209e-06,0.0,1759203777137051709
-1.2335073910688301e-05,0.0,1759203777156408165
2.452234315935316e-05,0.0,1759203777177140380
-1.053925821485358e-05,0.0,1759203777197165697
-1.3702991476264703e-05,0.0,1759203777215637886
-8.616016987925298e-06,0.0,1759203777237820094
-1.2199759689133211e-05,0.0,1759203777255892685
-1.2763321222132269e-05,0.0,1759203777276956209
-2.0406378080564483e-06,0.0,1759203777297173743
-1.0549178786396078e-05,0.0,1759203777316786762
-4.617054934051505e-06,0.0,1759203777336894051
-9.089834167156215e-06,0.0,1759203777356503281
7.85252608651443e-06,0.0,1759203777376851286
-1.3242896006278612e-07,0.0,1759203777395893672
-9.262932563135154e-06,0.0,1759203777416383280
1.1452424290141244e-06,0.0,1759203777436536955
-8.507705481529638e-06,0.0,1759203777456620254
-8.392799471304281e-06,0.0,1759203777475718338
-3.373822245383162e-06,0.0,1759203777497676817
-5.420753181678756e-06,0.0,1759203777515796746
-2.5815680934132345e-06,0.0,1759203777537558314
-4.854156246847077e-06,0.0,1759203777555503806
-7.342343757588738e-06,0.0,1759203777576577778
2.8776917470677476e-06,0.0,1759203777596555359
-5.906594768454357e-06,0.0,1759203777616484655
3.4748919383691274e-06,0.0,1759203777636782738
-5.743996708321084e-06,0.0,1759203777656744194
-4.3458556162154975e-05,0.0,1759203777677375842
-6.958745070127838e-06,0.0,1759203777697039918
-3.7721431210253893e-06,0.0,1759203777715741277
-6.1654502408966754e-06,0.0,1759203777737485910
-2.7022650314134654e-06,0.0,1759203777755719553
9.250539578923238e-07,0.0,1759203777776821019
1.087971425135103e-05,0.0,1759203777796833677
1.948483255603495e-06,0.0,1759203777816818122
1.0853413846779619e-05,0.0,1759203777836608292
9.531088850453325e-07,0.0,1759203777856620283
1.8220988769252482e-07,0.0,1759203777875936720
4.1046661522597315e-06,0.0,1759203777897883027
-9.797628320311913e-08,0.0,1759203777915513843
-6.978256922907174e-06,0.0,1759203777938251337
-2.3051923162854442e-06,0.0,1759203777955791046
-5.034302236208042e-07,0.0,1759203777976642694
8.123750781666803e-06,0.0,1759203777997361924
8.210197925005017e-08,0.0,1759203778016528517
4.353642389942939e-06,0.0,1759203778037048351
-4.855519482986941e-07,0.0,1759203778056332277
-1.371140964229823e-06,0.0,1759203778075895936
2.0463614846926333e-06,0.0,1759203778097795803
-1.0182824310496875e-06,0.0,1759203778115637669
2.6040073474163244e-05,0.0,1759203778137285457
-3.0094720134876807e-06,0.0,1759203778156659068
-4.690779770791388e-06,0.0,1759203778175758413
7.96586344563149e-06,0.0,1759203778197922201
5.38082483505273e-08,0.0,1759203778215682940
6.586522033703504e-06,0.0,1759203778237696329
-1.4165827573765275e-06,0.0,1759203778255665645
3.0454454767262968e-05,0.0,1759203778278653666
6.731435669924491e-06,0.0,1759203778296349463
-1.760763270829596e-05,0.0,1759203778316746848
9.541489529193317e-06,0.0,1759203778337158260
-1.7493490345323763e-05,0.0,1759203778356869385
-1.7721761911961692e-05,0.0,1759203778375998067
-1.4954266106983524e-05,0.0,1759203778397782916
-1.5261972256572962e-05,0.0,1759203778415440393
-1.2465102170020642e-05,0.0,1759203778438147779
-1.2973185550377813e-05,0.0,1759203778455656264
-1.3612652288876963e-05,0.0,1759203778477264595
-5.7092892917540236e-06,0.0,1759203778496513893
-1.0807216964470956e-05,0.0,1759203778516244542
-3.9774358338395495e-06,0.0,1759203778536867266
-9.437033745222421e-06,0.0,1759203778556824594
-8.947543922371835e-06,0.0,1759203778575851584
-5.490829806429623e-06,0.0,1759203778598081515
-7.473780399103344e-06,0.0,1759203778615411994
-4.615710871700514e-06,0.0,1759203778637346496
-6.615704755082074e-06,0.0,1759203778655688456
-6.951711253580612e-06,0.0,1759203778676744997
-8.33516323738056e-07,0.0,1759203778696583513
-5.6331667223600245e-06,0.0,1759203778716212232
-2.3662102590221621e-07,0.0,1759203778736963677
-5.389801660890749e-06,0.0,1759203778756246958
-5.4626442402024015e-06,0.0,1759203778775989816
1.9800064287612553e-06,0.0,1759203778797216874
-4.901192153531049e-06,0.0,1759203778816639536
8.605254541004732e-07,0.0,1759203778837361225
-5.148782662204741e-06,0.0,1759203778856478469
-5.427886074402807e-06,0.0,1759203778876871056
-1.91987066254739e-06,0.0,1759203778896679763
-2.9915625782888915e-06,0.0,1759203778916077356
-1.4285488931094373e-06,0.0,1759203778937950401
-2.7564004202782904e-06,0.0,1759203778955440944
3.385247173437409e-05,0.0,1759203778977861644
1.2623421775721768e-05,0.0,1759203778995657219
-9.69202265095737e-06,0.0,1759203779016576766
1.5174782022565259e-05,0.0,1759203779036698323
-1.027352749715914e-05,0.0,1759203779056592046
-1.10874274665713e-05,0.0,1759203779075429231
-4.292839801351011e-07,0.0,1759203779098417183
-6.5182308175125794e-06,0.0,1759203779115577796
-4.519564143466378e-07,0.0,1759203779137673471
-6.627938814318008e-06,0.0,1759203779155450375
-1.3152378344331339e-05,0.0,1759203779176424699
-8.637332480385871e-06,0.0,1759203779196662551
-1.174259953379586e-05,0.0,1759203779216594629
-7.181425597768595e-06,0.0,1759203779236915699
-1.0072674405526576e-05,0.0,1759203779256419165
-9.33486971208061e-06,0.0,1759203779275843074
-6.922982454324397e-06,0.0,1759203779298568471
-7.746954777090424e-06,0.0,1759203779315798965
-5.729847039842384e-06,0.0,1759203779337615773
-6.612578520234089e-06,0.0,1759203779355837961
2.5198564611938635e-05,0.0,1759203779377820384
-1.0092516196611725e-06,0.0,1759203779396074624
-1.0484238509664437e-05,0.0,1759203779417104409
1.3856611519954995e-06,0.0,1759203779437318941
-9.877154350012276e-06,0.0,1759203779456541138
-1.1196873209075826e-05,0.0,1759203779476636015
1.2414037404133527e-05,0.0,1759203779496892187
-9.005423842652931e-06,0.0,1759203779517060428
-7.249858624504609e-06,0.0,1759203779537542692
-1.0843756323262876e-05,0.0,1759203779556396783
-1.0332865666480116e-05,0.0,1759203779576581715
-8.801444098812731e-06,0.0,1759203779596788002
-8.204397855236266e-06,0.0,1759203779615811327
-7.1538964698077e-06,0.0,1759203779637702482
-6.722896956043304e-06,0.0,1759203779656133909
-6.3981047714582984e-06,0.0,1759203779676814842
-4.7180221745980465e-06,0.0,1759203779697589114
-5.276684397643806e-06,0.0,1759203779716219169
-3.7593563179298937e-06,0.0,1759203779736737633
-4.409076617099113e-06,0.0,1759203779756415828
-4.042588928327593e-06,0.0,1759203779776358452
7.637531130955365e-06,0.0,1759203779797708268
1.8219069179489605e-06,0.0,1759203779815858996
6.804866733788091e-06,0.0,1759203779837590322
6.402962187481546e-07,0.0,1759203779855877302
-5.896668298767418e-06,0.0,1759203779876817703
1.5610164897828154e-05,0.0,1759203779896649617
-4.731791544400528e-06,0.0,1759203779916331430
1.4761043497236206e-05,0.0,1759203779936862834
-6.441042560783001e-06,0.0,1759203779956391567
-7.252180650583411e-06,0.0,1759203779975960274
-1.8327428057541354e-05,0.0,1759203779998008103
-9.084561170004149e-06,0.0,1759203780015742565
-1.5251463806942661e-05,0.0,1759203780037422962
-5.837849766353368e-06,0.0,1759203780055703228
-2.09488794135633e-06,0.0,1759203780076959871
-1.959980778566416e-05,0.0,1759203780096405996
-2.5154136243381025e-06,0.0,1759203780116707516
-1.0893376050075413e-05,0.0,1759203780137143814
-9.120645616708753e-07,0.0,1759203780156730480
1.0982784080712543e-06,0.0,1759203780176351967
2.3763743239015403e-06,0.0,1759203780196969116
1.930004799926505e-06,0.0,1759203780216630650
2.6587696788532855e-06,0.0,1759203780236568612
1.578594964079236e-06,0.0,1759203780256302024
1.3099077187563295e-06,0.0,1759203780277126329
1.6614529318905803e-06,0.0,1759203780297066348
1.2827724556779175e-06,0.0,1759203780315657076
1.3607044688964284e-06,0.0,1759203780337613440
9.987011592231567e-07,0.0,1759203780356041128
1.9540813757276834e-06,0.0,1759203780377756713
1.1193095574627255e-06,0.0,1759203780395371636
2.850506712099114e-07,0.0,1759203780416709931
1.0569443957231095e-06,0.0,1759203780437052713
1.1907571316256991e-07,0.0,1759203780456355878
4.733582472022484e-08,0.0,1759203780476270767
4.0550959472898175e-07,0.0,1759203780497874593
1.5822949632519848e-07,0.0,1759203780515777954
3.320437595610345e-07,0.0,1759203780538069929
7.652861182380299e-08,0.0,1759203780555697617
-1.900186336371669e-07,0.0,1759203780576264607
6.158842703057542e-07,0.0,1759203780596969646
-1.816256096864478e-07,0.0,1759203780616446032
5.7137362798565e-07,0.0,1759203780637083261
-2.628137199959273e-07,0.0,1759203780656584205
2.3191179976022518e-06,0.0,1759203780677333327
-3.701522125728083e-07,0.0,1759203780696443339
-6.268470856920144e-07,0.0,1759203780715689714
-2.903512737465332e-07,0.0,1759203780737443684
-5.746858994475106e-07,0.0,1759203780755942057
-6.443805965786094e-07,0.0,1759203780777228346
1.3465075487251153e-07,0.0,1759203780796517898
-4.865908795969192e-07,0.0,1759203780816787814
1.164178691842527e-05,0.0,1759203780836692678
1.5214871047033554e-06,0.0,1759203780856751990
-7.127790099167651e-07,0.0,1759203780875389263
1.95758941432447e-05,0.0,1759203780896742044
-1.4584481927264915e-06,0.0,1759203780916785918
1.7651071040625864e-05,0.0,1759203780937410324
-4.345179836106435e-06,0.0,1759203780956659074
-7.379853863043257e-05,0.0,1759203780977305686
-6.672630014841518e-06,0.0,1759203780996536407
-1.6600918122248694e-06,0.0,1759203781016062784
-6.5100586928874705e-06,0.0,1759203781038067014
-5.430192862376838e-07,0.0,1759203781055864640
5.73277521863553e-06,0.0,1759203781076666689
-1.4222770711608903e-05,0.0,1759203781097069841
5.333409936466857e-06,0.0,1759203781116444446
-1.3660410079864798e-05,0.0,1759203781136601769
6.14126539324299e-06,0.0,1759203781156595701
1.0292302865511276e-05,0.0,1759203781177282864
8.06960240137198e-06,0.0,1759203781196385478
7.176091176872293e-06,0.0,1759203781215901341
6.877658342119047e-06,0.0,1759203781237730209
5.9382288237196775e-06,0.0,1759203781255701078
6.5361731331345275e-06,0.0,1759203781278205907
5.132847209896004e-06,0.0,1759203781295541335
3.781039962894716e-06,0.0,1759203781316715754
4.345923431311867e-06,0.0,1759203781336655838
2.9658379977902793e-06,0.0,1759203781356326881
5.840409889580621e-06,0.0,1759203781377064262
2.2516485561922063e-06,0.0,1759203781396401430
1.664709364716882e-06,0.0,1759203781415666508
1.8296647637247673e-06,0.0,1759203781437816715
1.2406388106331779e-06,0.0,1759203781455383898
9.607739934601108e-07,0.0,1759203781476810308
1.715865087288466e-06,0.0,1759203781496808809
7.849252687698269e-07,0.0,1759203781516822422
1.1404148498380642e-06,0.0,1759203781536889320
5.942896888460227e-07,0.0,1759203781556882563
4.344536031502358e-07,0.0,1759203781575392849
1.2532299884581106e-06,0.0,1759203781597135589
2.560546415919496e-07,0.0,1759203781616286719
1.0575172683758749e-06,0.0,1759203781636838522
7.927094195161861e-08,0.0,1759203781656283343
2.768850560099753e-05,0.0,1759203781678675670
2.3818167624039223e-06,0.0,1759203781695659751
-2.342442068688984e-06,0.0,1759203781716021296
3.0373421382007704e-06,0.0,1759203781737589494
-2.5083905205311383e-06,0.0,1759203781756327864
2.4299743785693245e-05,0.0,1759203781777951103
6.326546302468849e-06,0.0,1759203781795937430
-1.2868539981475305e-05,0.0,1759203781816517665
7.6911733255134e-06,0.0,1759203781837470455
-1.3672354817215218e-05,0.0,1759203781856941643
5.730037389762566e-05,0.0,1759203781877235509
-1.1838581448095235e-05,0.0,1759203781896877477
-1.5555387581046114e-05,0.0,1759203781915663394
-9.227786318143283e-06,0.0,1759203781937739443
-1.380796482674594e-05,0.0,1759203781955402656
-1.8447128373765568e-05,0.0,1759203781977867943
-1.7151242130136842e-05,0.0,1759203781996799212
-1.6080621330918636e-05,0.0,1759203782016527582
5.486622759981162e-06,0.0,1759203782037126817
-1.3143795793287325e-05,0.0,1759203782056192133
-1.3144573557693295e-05,0.0,1759203782075770399
-3.281987746419146e-06,0.0,1759203782097665265
-1.0929931027548818e-05,0.0,1759203782115468482
-3.4984793809985703e-06,0.0,1759203782137632029
-1.0965270016176369e-05,0.0,1759203782155566592
-1.2951047442918966e-05,0.0,1759203782176721972
-1.4113773969267038e-05,0.0,1759203782196759161
-1.15823474960988e-05,0.0,1759203782216194932
-1.1484175396228978e-05,0.0,1759203782236876806
-9.335621716998206e-06,0.0,1759203782256292167
-8.191151985366729e-06,0.0,1759203782276422501
-9.436018774958516e-06,0.0,1759203782297224229
-6.4929749089769e-06,0.0,1759203782316601713
-7.787170145322275e-06,0.0,1759203782337037311
-5.047781594492135e-06,0.0,1759203782357276360
-4.391194121256486e-06,0.0,1759203782376403441
6.00732052141857e-06,0.0,1759203782397732030
1.1612268324782e-06,0.0,1759203782416077737
5.509430107658965e-06,0.0,1759203782437785148
2.4118064156144805e-07,0.0,1759203782455758565
-5.281377207824196e-06,0.0,1759203782477019060
1.229959400193935e-05,0.0,1759203782497762394
-5.883270497760571e-06,0.0,1759203782516377424
1.0444253680495495e-05,0.0,1759203782537610229
-8.051215810880161e-06,0.0,1759203782556647772
-8.53121620396347e-06,0.0,1759203782575510956
-3.672584338397342e-07,0.0,1759203782597520042
-4.57252887841465e-06,0.0,1759203782615426732
-2.065376337241201e-07,0.0,1759203782637517586
-4.6102455279358325e-06,0.0,1759203782655612382
-9.29407609233515e-06,0.0,1759203782676830629
8.186226475383112e-06,0.0,1759203782696821364
-7.439005046149147e-06,0.0,1759203782716958663
8.97002582824215e-06,0.0,1759203782736782850
-7.813473411744286e-06,0.0,1759203782756187150
-8.955530150148997e-06,0.0,1759203782775482003
-8.899120014235236e-07,0.0,1759203782797953119
-7.233309088485879e-06,0.0,1759203782815509332
-2.4744708487706415e-06,0.0,1759203782837495505
-7.658588455330852e-06,0.0,1759203782855397610
-8.99416903515317e-06,0.0,1759203782877258769
6.249418588442448e-06,0.0,1759203782896776357
-7.122313406702624e-06,0.0,1759203782916191041
6.535875366090451e-07,0.0,1759203782936736695
-6.6106941722206204e-06,0.0,1759203782956953571
-7.483503001152278e-06,0.0,1759203782976704832
7.67403602630347e-06,0.0,1759203782998285748
